File: Grupo 8 03-10-2023/Grupo 8_0,2 v_s CV com par ferri_ferro.txt
Potential applied (V);Time (s);WE(1).Current (A);WE(1).Potential (V);Scan;Index;Q+;Q-;Current range;Overload
0,262451171875;6,46752998367106;0,0001;0,26348876953125;1;1;9,94249969720841E-05;-5,42495388537645E-05;10 µA;Current overload
0,272216796875;6,51635798354778;7,3577880859375E-05;0,2724609375;1;5;9,94249969720841E-05;-5,42495388537645E-05;100 µA;
0,281982421875;6,5651859834245;6,072998046875E-05;0,2822265625;1;9;9,94249969720841E-05;-5,42495388537645E-05;100 µA;
0,291748046875;6,61401398330122;5,31005859375E-05;0,292083740234375;1;13;9,94249969720841E-05;-5,42495388537645E-05;100 µA;
0,301513671875;6,66284198317794;4,7808837890625E-05;0,30181884765625;1;17;9,94249969720841E-05;-5,42495388537645E-05;100 µA;
0,311279296875;6,71166998305466;4,36431884765625E-05;0,31195068359375;1;21;9,94249969720841E-05;-5,42495388537645E-05;10 µA;
0,321044921875;6,76049798293138;4,033203125E-05;0,32171630859375;1;25;9,94249969720841E-05;-5,42495388537645E-05;10 µA;
0,330810546875;6,8093259828081;3,76129150390625E-05;0,33135986328125;1;29;9,94249969720841E-05;-5,42495388537645E-05;10 µA;
0,340576171875;6,85815398268483;3,53271484375E-05;0,341094970703125;1;33;9,94249969720841E-05;-5,42495388537645E-05;10 µA;
0,350341796875;6,90698198256155;3,3392333984375E-05;0,35089111328125;1;37;9,94249969720841E-05;-5,42495388537645E-05;10 µA;
0,360107421875;6,95580998243827;3,17047119140625E-05;0,360687255859375;1;41;9,94249969720841E-05;-5,42495388537645E-05;10 µA;
0,369873046875;7,00463798231499;3,02490234375E-05;0,37042236328125;1;45;9,94249969720841E-05;-5,42495388537645E-05;10 µA;
0,379638671875;7,05346598219171;2,8955078125E-05;0,38031005859375;1;49;9,94249969720841E-05;-5,42495388537645E-05;10 µA;
0,389404296875;7,10229398206843;2,7825927734375E-05;0,390045166015625;1;53;9,94249969720841E-05;-5,42495388537645E-05;10 µA;
0,399169921875;7,15112198194515;2,6806640625E-05;0,3997802734375;1;57;9,94249969720841E-05;-5,42495388537645E-05;10 µA;
0,408935546875;7,19994998182187;2,59002685546875E-05;0,4095458984375;1;61;9,94249969720841E-05;-5,42495388537645E-05;10 µA;
0,418701171875;7,24877798169859;2,5067138671875E-05;0,4193115234375;1;65;9,94249969720841E-05;-5,42495388537645E-05;10 µA;
0,428466796875;7,29760598157532;2,4322509765625E-05;0,429046630859375;1;69;9,94249969720841E-05;-5,42495388537645E-05;10 µA;
0,438232421875;7,34643398145204;2,362060546875E-05;0,438934326171875;1;73;9,94249969720841E-05;-5,42495388537645E-05;10 µA;
0,447998046875;7,39526198132876;2,30072021484375E-05;0,448638916015625;1;77;9,94249969720841E-05;-5,42495388537645E-05;10 µA;
0,457763671875;7,44408998120548;2,24334716796875E-05;0,4583740234375;1;81;9,94249969720841E-05;-5,42495388537645E-05;10 µA;
0,467529296875;7,4929179810822;2,1905517578125E-05;0,468170166015625;1;85;9,94249969720841E-05;-5,42495388537645E-05;10 µA;
0,477294921875;7,54174598095892;2,14141845703125E-05;0,4779052734375;1;89;9,94249969720841E-05;-5,42495388537645E-05;10 µA;
0,487060546875;7,59057398083564;2,09686279296875E-05;0,487640380859375;1;93;9,94249969720841E-05;-5,42495388537645E-05;10 µA;
0,496826171875;7,63940198071236;2,05535888671875E-05;0,497528076171875;1;97;9,94249969720841E-05;-5,42495388537645E-05;10 µA;
0,506591796875;7,68822998058909;2,0172119140625E-05;0,50726318359375;1;101;9,94249969720841E-05;-5,42495388537645E-05;10 µA;
0,516357421875;7,73705798046581;1,98089599609375E-05;0,51702880859375;1;105;9,94249969720841E-05;-5,42495388537645E-05;10 µA;
0,526123046875;7,78588598034253;1,94732666015625E-05;0,52679443359375;1;109;9,94249969720841E-05;-5,42495388537645E-05;10 µA;
0,535888671875;7,83471398021925;1,9158935546875E-05;0,536590576171875;1;113;9,94249969720841E-05;-5,42495388537645E-05;10 µA;
0,545654296875;7,88354198009597;1,88690185546875E-05;0,546417236328125;1;117;9,94249969720841E-05;-5,42495388537645E-05;10 µA;
0,555419921875;7,93236997997269;1,8585205078125E-05;0,5560302734375;1;121;9,94249969720841E-05;-5,42495388537645E-05;10 µA;
0,565185546875;7,98119797984941;1,83349609375E-05;0,56591796875;1;125;9,94249969720841E-05;-5,42495388537645E-05;10 µA;
0,574951171875;8,03002597972613;1,8084716796875E-05;0,575714111328125;1;129;9,94249969720841E-05;-5,42495388537645E-05;10 µA;
0,584716796875;8,07885397960285;1,78741455078125E-05;0,58551025390625;1;133;9,94249969720841E-05;-5,42495388537645E-05;10 µA;
0,594482421875;8,12768197947958;1,766357421875E-05;0,595245361328125;1;137;9,94249969720841E-05;-5,42495388537645E-05;10 µA;
0,604248046875;8,1765099793563;1,74713134765625E-05;0,60498046875;1;141;9,94249969720841E-05;-5,42495388537645E-05;10 µA;
0,614013671875;8,22533797923302;1,73065185546875E-05;0,61480712890625;1;145;9,94249969720841E-05;-5,42495388537645E-05;10 µA;
0,623779296875;8,27416597910974;1,71661376953125E-05;0,62457275390625;1;149;9,94249969720841E-05;-5,42495388537645E-05;10 µA;
0,633544921875;8,32299397898646;1,70318603515625E-05;0,63433837890625;1;153;9,94249969720841E-05;-5,42495388537645E-05;10 µA;
0,643310546875;8,37182197886318;1,6925048828125E-05;0,644134521484375;1;157;9,94249969720841E-05;-5,42495388537645E-05;10 µA;
0,653076171875;8,4206499787399;1,6827392578125E-05;0,6539306640625;1;161;9,94249969720841E-05;-5,42495388537645E-05;10 µA;
0,662841796875;8,46947797861662;1,67633056640625E-05;0,663665771484375;1;165;9,94249969720841E-05;-5,42495388537645E-05;10 µA;
0,672607421875;8,51830597849334;1,6705322265625E-05;0,67340087890625;1;169;9,94249969720841E-05;-5,42495388537645E-05;10 µA;
0,682373046875;8,56713397837007;1,66839599609375E-05;0,683197021484375;1;173;9,94249969720841E-05;-5,42495388537645E-05;10 µA;
0,692138671875;8,61596197824679;1,66717529296875E-05;0,69305419921875;1;177;9,94249969720841E-05;-5,42495388537645E-05;10 µA;
0,701904296875;8,66478997812351;1,66839599609375E-05;0,70281982421875;1;181;9,94249969720841E-05;-5,42495388537645E-05;10 µA;
0,692138671875;8,71361797800023;1,55975341796875E-05;0,6929931640625;1;185;9,94249969720841E-05;-5,42495388537645E-05;10 µA;
0,682373046875;8,76244597787695;1,49932861328125E-05;0,683197021484375;1;189;9,94249969720841E-05;-5,42495388537645E-05;10 µA;
0,672607421875;8,81127397775367;1,455078125E-05;0,673492431640625;1;193;9,94249969720841E-05;-5,42495388537645E-05;10 µA;
0,662841796875;8,86010197763039;1,42059326171875E-05;0,6636962890625;1;197;9,94249969720841E-05;-5,42495388537645E-05;10 µA;
0,653076171875;8,90892997750711;1,39190673828125E-05;0,653900146484375;1;201;9,94249969720841E-05;-5,42495388537645E-05;10 µA;
0,643310546875;8,95775797738384;1,36749267578125E-05;0,644134521484375;1;205;9,94249969720841E-05;-5,42495388537645E-05;10 µA;
0,633544921875;9,00658597726056;1,346435546875E-05;0,63433837890625;1;209;9,94249969720841E-05;-5,42495388537645E-05;10 µA;
0,623779296875;9,05541397713728;1,32781982421875E-05;0,624542236328125;1;213;9,94249969720841E-05;-5,42495388537645E-05;10 µA;
0,614013671875;9,104241977014;1,31011962890625E-05;0,614776611328125;1;217;9,94249969720841E-05;-5,42495388537645E-05;10 µA;
0,604248046875;9,15306997689072;1,29425048828125E-05;0,604888916015625;1;221;9,94249969720841E-05;-5,42495388537645E-05;10 µA;
0,594482421875;9,20189797676744;1,279296875E-05;0,595123291015625;1;225;9,94249969720841E-05;-5,42495388537645E-05;10 µA;
0,584716796875;9,25072597664416;1,26556396484375E-05;0,585357666015625;1;229;9,94249969720841E-05;-5,42495388537645E-05;10 µA;
0,574951171875;9,29955397652088;1,25152587890625E-05;0,575653076171875;1;233;9,94249969720841E-05;-5,42495388537645E-05;10 µA;
0,565185546875;9,3483819763976;1,23870849609375E-05;0,56585693359375;1;237;9,94249969720841E-05;-5,42495388537645E-05;10 µA;
0,555419921875;9,39720997627433;1,2255859375E-05;0,55609130859375;1;241;9,94249969720841E-05;-5,42495388537645E-05;10 µA;
0,545654296875;9,44603797615105;1,21368408203125E-05;0,5462646484375;1;245;9,94249969720841E-05;-5,42495388537645E-05;10 µA;
0,535888671875;9,49486597602777;1,2017822265625E-05;0,536468505859375;1;249;9,94249969720841E-05;-5,42495388537645E-05;10 µA;
0,526123046875;9,54369397590449;1,19171142578125E-05;0,526763916015625;1;253;9,94249969720841E-05;-5,42495388537645E-05;10 µA;
0,516357421875;9,59252197578121;1,18011474609375E-05;0,516937255859375;1;257;9,94249969720841E-05;-5,42495388537645E-05;10 µA;
0,506591796875;9,64134997565793;1,17034912109375E-05;0,50714111328125;1;261;9,94249969720841E-05;-5,42495388537645E-05;10 µA;
0,496826171875;9,69017797553465;1,16058349609375E-05;0,4974365234375;1;265;9,94249969720841E-05;-5,42495388537645E-05;10 µA;
0,487060546875;9,73900597541137;1,15081787109375E-05;0,48760986328125;1;269;9,94249969720841E-05;-5,42495388537645E-05;10 µA;
0,477294921875;9,78783397528809;1,1407470703125E-05;0,47784423828125;1;273;9,94249969720841E-05;-5,42495388537645E-05;10 µA;
0,467529296875;9,83666197516482;1,13189697265625E-05;0,4681396484375;1;277;9,94249969720841E-05;-5,42495388537645E-05;10 µA;
0,457763671875;9,88548997504154;1,12274169921875E-05;0,458343505859375;1;281;9,94249969720841E-05;-5,42495388537645E-05;10 µA;
0,447998046875;9,93431797491826;1,11297607421875E-05;0,448486328125;1;285;9,94249969720841E-05;-5,42495388537645E-05;10 µA;
0,438232421875;9,98314597479498;1,10260009765625E-05;0,438690185546875;1;289;9,94249969720841E-05;-5,42495388537645E-05;10 µA;
0,428466796875;10,0319739746717;1,09283447265625E-05;0,42901611328125;1;293;9,94249969720841E-05;-5,42495388537645E-05;10 µA;
0,418701171875;10,0808019745484;1,08245849609375E-05;0,419158935546875;1;297;9,94249969720841E-05;-5,42495388537645E-05;10 µA;
0,408935546875;10,1296299744251;1,07177734375E-05;0,409423828125;1;301;9,94249969720841E-05;-5,42495388537645E-05;10 µA;
0,399169921875;10,1784579743019;1,060791015625E-05;0,399658203125;1;305;9,94249969720841E-05;-5,42495388537645E-05;10 µA;
0,389404296875;10,2272859741786;1,0504150390625E-05;0,389892578125;1;309;9,94249969720841E-05;-5,42495388537645E-05;10 µA;
0,379638671875;10,2761139740553;1,03668212890625E-05;0,380035400390625;1;313;9,94249969720841E-05;-5,42495388537645E-05;10 µA;
0,369873046875;10,324941973932;1,0235595703125E-05;0,370330810546875;1;317;9,94249969720841E-05;-5,42495388537645E-05;10 µA;
0,360107421875;10,3737699738087;1,00860595703125E-05;0,36053466796875;1;321;9,94249969720841E-05;-5,42495388537645E-05;10 µA;
0,350341796875;10,4225979736855;9,912109375E-06;0,3507080078125;1;325;9,94249969720841E-05;-5,42495388537645E-05;10 µA;
0,340576171875;10,4714259735622;9,698486328125E-06;0,34100341796875;1;329;9,94249969720841E-05;-5,42495388537645E-05;10 µA;
0,330810546875;10,5202539734389;9,4268798828125E-06;0,331146240234375;1;333;9,94249969720841E-05;-5,42495388537645E-05;10 µA;
0,321044921875;10,5690819733156;9,0850830078125E-06;0,321319580078125;1;337;9,94249969720841E-05;-5,42495388537645E-05;10 µA;
0,311279296875;10,6179099731924;8,6395263671875E-06;0,311614990234375;1;341;9,94249969720841E-05;-5,42495388537645E-05;10 µA;
0,301513671875;10,6667379730691;8,0322265625E-06;0,301788330078125;1;345;9,94249969720841E-05;-5,42495388537645E-05;10 µA;
0,291748046875;10,7155659729458;7,2357177734375E-06;0,292022705078125;1;349;9,94249969720841E-05;-5,42495388537645E-05;10 µA;
0,281982421875;10,7643939728225;6,170654296875E-06;0,2822265625;1;353;9,94249969720841E-05;-5,42495388537645E-05;10 µA;
0,272216796875;10,8132219726992;4,7637939453125E-06;0,2724609375;1;357;9,94249969720841E-05;-5,42495388537645E-05;10 µA;
0,262451171875;10,862049972576;2,938232421875E-06;0,262603759765625;1;361;9,94249969720841E-05;-5,42495388537645E-05;10 µA;
0,252685546875;10,9108779724527;5,987548828125E-07;0,252899169921875;1;365;9,94249969720841E-05;-5,42495388537645E-05;1 µA;
0,242919921875;10,9597059723294;-2,293701171875E-06;0,24285888671875;1;369;9,94249969720841E-05;-5,42495388537645E-05;1 µA;
0,233154296875;11,0085339722061;-5,7525634765625E-06;0,232940673828125;1;373;9,94249969720841E-05;-5,42495388537645E-05;1 µA;
0,223388671875;11,0573619720828;-9,735107421875E-06;0,223480224609375;1;377;9,94249969720841E-05;-5,42495388537645E-05;10 µA;
0,213623046875;11,1061899719596;-1,405029296875E-05;0,213714599609375;1;381;9,94249969720841E-05;-5,42495388537645E-05;10 µA;
0,203857421875;11,1550179718363;-1,8475341796875E-05;0,203857421875;1;385;9,94249969720841E-05;-5,42495388537645E-05;10 µA;
0,194091796875;11,203845971713;-2,2711181640625E-05;0,194061279296875;1;389;9,94249969720841E-05;-5,42495388537645E-05;10 µA;
0,184326171875;11,2526739715897;-2,64312744140625E-05;0,184234619140625;1;393;9,94249969720841E-05;-5,42495388537645E-05;10 µA;
0,174560546875;11,3015019714665;-2,93426513671875E-05;0,17437744140625;1;397;9,94249969720841E-05;-5,42495388537645E-05;10 µA;
0,164794921875;11,3503299713432;-3,1280517578125E-05;0,164520263671875;1;401;9,94249969720841E-05;-5,42495388537645E-05;10 µA;
0,155029296875;11,3991579712199;-3,2171630859375E-05;0,154937744140625;1;405;9,94249969720841E-05;-5,42495388537645E-05;10 µA;
0,145263671875;11,4479859710966;-3,2135009765625E-05;0,1451416015625;1;409;9,94249969720841E-05;-5,42495388537645E-05;10 µA;
0,135498046875;11,4968139709733;-3,13385009765625E-05;0,13531494140625;1;413;9,94249969720841E-05;-5,42495388537645E-05;10 µA;
0,125732421875;11,5456419708501;-3,004150390625E-05;0,12548828125;1;417;9,94249969720841E-05;-5,42495388537645E-05;10 µA;
0,115966796875;11,5944699707268;-2,84912109375E-05;0,115814208984375;1;421;9,94249969720841E-05;-5,42495388537645E-05;10 µA;
0,106201171875;11,6432979706035;-2,6837158203125E-05;0,106048583984375;1;425;9,94249969720841E-05;-5,42495388537645E-05;10 µA;
0,096435546875;11,6921259704802;-2,51953125E-05;0,096282958984375;1;429;9,94249969720841E-05;-5,42495388537645E-05;10 µA;
0,086669921875;11,7409539703569;-2,366943359375E-05;0,0865478515625;1;433;9,94249969720841E-05;-5,42495388537645E-05;10 µA;
0,076904296875;11,7897819702337;-2,227783203125E-05;0,076690673828125;1;437;9,94249969720841E-05;-5,42495388537645E-05;10 µA;
0,067138671875;11,8386099701104;-2,10296630859375E-05;0,06689453125;1;441;9,94249969720841E-05;-5,42495388537645E-05;10 µA;
0,057373046875;11,8874379699871;-1,9915771484375E-05;0,05718994140625;1;445;9,94249969720841E-05;-5,42495388537645E-05;10 µA;
0,047607421875;11,9362659698638;-1,89239501953125E-05;0,04755859375;1;449;9,94249969720841E-05;-5,42495388537645E-05;10 µA;
0,037841796875;11,9850939697405;-1,806640625E-05;0,037786865234375;1;453;9,94249969720841E-05;-5,42495388537645E-05;10 µA;
0,028076171875;12,0339219696173;-1,7315673828125E-05;0,027996826171875;1;457;9,94249969720841E-05;-5,42495388537645E-05;10 µA;
0,018310546875;12,082749969494;-1,66595458984375E-05;0,0182586669921875;1;461;9,94249969720841E-05;-5,42495388537645E-05;10 µA;
0,008544921875;12,1315779693707;-1,60980224609375E-05;0,0084503173828125;1;465;9,94249969720841E-05;-5,42495388537645E-05;10 µA;
-0,001220703125;12,1804059692474;-1,56158447265625E-05;-0,00131835937499999;1;469;9,94249969720841E-05;-5,42495388537645E-05;10 µA;
-0,010986328125;12,2292339691242;-1,52008056640625E-05;-0,0110870361328125;1;473;9,94249969720841E-05;-5,42495388537645E-05;10 µA;
-0,020751953125;12,2780619690009;-1,4849853515625E-05;-0,020867919921875;1;477;9,94249969720841E-05;-5,42495388537645E-05;10 µA;
-0,030517578125;12,3268899688776;-1,45599365234375E-05;-0,0306488037109375;1;481;9,94249969720841E-05;-5,42495388537645E-05;10 µA;
-0,040283203125;12,3757179687543;-1,4324951171875E-05;-0,040423583984375;1;485;9,94249969720841E-05;-5,42495388537645E-05;10 µA;
-0,050048828125;12,424545968631;-1,41448974609375E-05;-0,05035400390625;1;489;9,94249969720841E-05;-5,42495388537645E-05;10 µA;
-0,059814453125;12,4733739685078;-1,40289306640625E-05;-0,06011962890625;1;493;9,94249969720841E-05;-5,42495388537645E-05;10 µA;
-0,069580078125;12,5222019683845;-1,39556884765625E-05;-0,0699462890625;1;497;9,94249969720841E-05;-5,42495388537645E-05;10 µA;
-0,079345703125;12,5710299682612;-1,39434814453125E-05;-0,079681396484375;1;501;9,94249969720841E-05;-5,42495388537645E-05;10 µA;
-0,089111328125;12,6198579681379;-1,39739990234375E-05;-0,08953857421875;1;505;9,94249969720841E-05;-5,42495388537645E-05;10 µA;
-0,098876953125;12,6686859680146;-1,4068603515625E-05;-0,099273681640625;1;509;9,94249969720841E-05;-5,42495388537645E-05;10 µA;
-0,108642578125;12,7175139678914;-1,4215087890625E-05;-0,1090087890625;1;513;9,94249969720841E-05;-5,42495388537645E-05;10 µA;
-0,118408203125;12,7663419677681;-1,4404296875E-05;-0,1187744140625;1;517;9,94249969720841E-05;-5,42495388537645E-05;10 µA;
-0,128173828125;12,8151699676448;-1,46392822265625E-05;-0,1285400390625;1;521;9,94249969720841E-05;-5,42495388537645E-05;10 µA;
-0,137939453125;12,8639979675215;-1,4910888671875E-05;-0,13836669921875;1;525;9,94249969720841E-05;-5,42495388537645E-05;10 µA;
-0,147705078125;12,9128259673982;-1,52008056640625E-05;-0,148101806640625;1;529;9,94249969720841E-05;-5,42495388537645E-05;10 µA;
-0,157470703125;12,961653967275;-1,55303955078125E-05;-0,1578369140625;1;533;9,94249969720841E-05;-5,42495388537645E-05;10 µA;
-0,167236328125;13,0104819671517;-1,58477783203125E-05;-0,167633056640625;1;537;9,94249969720841E-05;-5,42495388537645E-05;10 µA;
-0,177001953125;13,0593099670284;-1,6168212890625E-05;-0,177459716796875;1;541;9,94249969720841E-05;-5,42495388537645E-05;10 µA;
-0,186767578125;13,1081379669051;-1,64703369140625E-05;-0,187225341796875;1;545;9,94249969720841E-05;-5,42495388537645E-05;10 µA;
-0,196533203125;13,1569659667819;-1,6741943359375E-05;-0,197052001953125;1;549;9,94249969720841E-05;-5,42495388537645E-05;10 µA;
-0,196533203125;13,2057939666586;-1,61651611328125E-05;-0,196990966796875;1;553;9,94249969720841E-05;-5,42495388537645E-05;10 µA;
-0,186767578125;13,2546219665353;-1,50177001953125E-05;-0,187255859375;1;557;9,94249969720841E-05;-5,42495388537645E-05;10 µA;
-0,177001953125;13,303449966412;-1,402587890625E-05;-0,17742919921875;1;561;9,94249969720841E-05;-5,42495388537645E-05;10 µA;
-0,167236328125;13,3522779662887;-1,31744384765625E-05;-0,16766357421875;1;565;9,94249969720841E-05;-5,42495388537645E-05;10 µA;
-0,157470703125;13,4011059661655;-1,2420654296875E-05;-0,157867431640625;1;569;9,94249969720841E-05;-5,42495388537645E-05;10 µA;
-0,147705078125;13,4499339660422;-1,17431640625E-05;-0,14813232421875;1;573;9,94249969720841E-05;-5,42495388537645E-05;10 µA;
-0,137939453125;13,4987619659189;-1,11419677734375E-05;-0,1383056640625;1;577;9,94249969720841E-05;-5,42495388537645E-05;10 µA;
-0,128173828125;13,5475899657956;-1,0589599609375E-05;-0,128509521484375;1;581;9,94249969720841E-05;-5,42495388537645E-05;10 µA;
-0,118408203125;13,5964179656723;-1,00799560546875E-05;-0,1187744140625;1;585;9,94249969720841E-05;-5,42495388537645E-05;10 µA;
-0,108642578125;13,6452459655491;-9,625244140625E-06;-0,108978271484375;1;589;9,94249969720841E-05;-5,42495388537645E-05;10 µA;
-0,098876953125;13,6940739654258;-9,2010498046875E-06;-0,099273681640625;1;593;9,94249969720841E-05;-5,42495388537645E-05;10 µA;
-0,089111328125;13,7429019653025;-8,795166015625E-06;-0,089447021484375;1;597;9,94249969720841E-05;-5,42495388537645E-05;10 µA;
-0,079345703125;13,7917299651792;-8,43505859375E-06;-0,079620361328125;1;601;9,94249969720841E-05;-5,42495388537645E-05;10 µA;
-0,069580078125;13,840557965056;-8,0810546875E-06;-0,069915771484375;1;605;9,94249969720841E-05;-5,42495388537645E-05;10 µA;
-0,059814453125;13,8893859649327;-7,763671875E-06;-0,060089111328125;1;609;9,94249969720841E-05;-5,42495388537645E-05;10 µA;
-0,050048828125;13,9382139648094;-7,4676513671875E-06;-0,05029296875;1;613;9,94249969720841E-05;-5,42495388537645E-05;10 µA;
-0,040283203125;13,9870419646861;-7,177734375E-06;-0,0404266357421875;1;617;9,94249969720841E-05;-5,42495388537645E-05;10 µA;
-0,030517578125;14,0358699645628;-6,9091796875E-06;-0,0306671142578125;1;621;9,94249969720841E-05;-5,42495388537645E-05;10 µA;
-0,020751953125;14,0846979644396;-6,6650390625E-06;-0,0208953857421875;1;625;9,94249969720841E-05;-5,42495388537645E-05;10 µA;
-0,010986328125;14,1335259643163;-6,4239501953125E-06;-0,0111175537109375;1;629;9,94249969720841E-05;-5,42495388537645E-05;10 µA;
-0,001220703125;14,182353964193;-6,2042236328125E-06;-0,0013458251953125;1;633;9,94249969720841E-05;-5,42495388537645E-05;10 µA;
0,008544921875;14,2311819640697;-5,9814453125E-06;0,00848999023437499;1;637;9,94249969720841E-05;-5,42495388537645E-05;10 µA;
0,018310546875;14,2800099639464;-5,7525634765625E-06;0,018280029296875;1;641;9,94249969720841E-05;-5,42495388537645E-05;10 µA;
0,028076171875;14,3288379638232;-5,535888671875E-06;0,02802734375;1;645;9,94249969720841E-05;-5,42495388537645E-05;10 µA;
0,037841796875;14,3776659636999;-5,2978515625E-06;0,03778076171875;1;649;9,94249969720841E-05;-5,42495388537645E-05;10 µA;
0,047607421875;14,4264939635766;-5,047607421875E-06;0,0475555419921875;1;653;9,94249969720841E-05;-5,42495388537645E-05;10 µA;
0,057373046875;14,4753219634533;-4,77264404296875E-06;0,05731201171875;1;657;9,94249969720841E-05;-5,42495388537645E-05;10 µA;
0,067138671875;14,52414996333;-4,43878173828125E-06;0,0667724609375;1;661;9,94249969720841E-05;-5,42495388537645E-05;1 µA;
0,076904296875;14,5729779632068;-4,058837890625E-06;0,076629638671875;1;665;9,94249969720841E-05;-5,42495388537645E-05;1 µA;
0,086669921875;14,6218059630835;-3,580322265625E-06;0,08642578125;1;669;9,94249969720841E-05;-5,42495388537645E-05;1 µA;
0,096435546875;14,6706339629602;-2,9693603515625E-06;0,096160888671875;1;673;9,94249969720841E-05;-5,42495388537645E-05;1 µA;
0,106201171875;14,7194619628369;-2,17620849609375E-06;0,106048583984375;1;677;9,94249969720841E-05;-5,42495388537645E-05;1 µA;
0,115966796875;14,7682899627137;-1,15692138671875E-06;0,11590576171875;1;681;9,94249969720841E-05;-5,42495388537645E-05;1 µA;
0,125732421875;14,8171179625904;2,0428466796875E-07;0,12579345703125;1;685;9,94249969720841E-05;-5,42495388537645E-05;1 µA;
0,135498046875;14,8659459624671;1,97235107421875E-06;0,135711669921875;1;689;9,94249969720841E-05;-5,42495388537645E-05;1 µA;
0,145263671875;14,9147739623438;4,23187255859375E-06;0,14569091796875;1;693;9,94249969720841E-05;-5,42495388537645E-05;1 µA;
0,155029296875;14,9636019622205;7,061767578125E-06;0,1551513671875;1;697;9,94249969720841E-05;-5,42495388537645E-05;10 µA;
0,164794921875;15,0124299620973;1,044921875E-05;0,1649169921875;1;701;9,94249969720841E-05;-5,42495388537645E-05;10 µA;
0,174560546875;15,061257961974;1,43890380859375E-05;0,17474365234375;1;705;9,94249969720841E-05;-5,42495388537645E-05;10 µA;
0,184326171875;15,1100859618507;1,87042236328125E-05;0,18463134765625;1;709;9,94249969720841E-05;-5,42495388537645E-05;10 µA;
0,194091796875;15,1589139617274;2,31842041015625E-05;0,19439697265625;1;713;9,94249969720841E-05;-5,42495388537645E-05;10 µA;
0,203857421875;15,2077419616041;2,75238037109375E-05;0,204254150390625;1;717;9,94249969720841E-05;-5,42495388537645E-05;10 µA;
0,213623046875;15,2565699614809;3,13629150390625E-05;0,214019775390625;1;721;9,94249969720841E-05;-5,42495388537645E-05;10 µA;
0,223388671875;15,3053979613576;3,44573974609375E-05;0,22381591796875;1;725;9,94249969720841E-05;-5,42495388537645E-05;10 µA;
0,233154296875;15,3542259612343;3,6572265625E-05;0,23370361328125;1;729;9,94249969720841E-05;-5,42495388537645E-05;10 µA;
0,242919921875;15,403053961111;3,76434326171875E-05;0,243438720703125;1;733;9,94249969720841E-05;-5,42495388537645E-05;10 µA;
0,252685546875;15,4518819609877;3,773193359375E-05;0,253143310546875;1;737;9,94249969720841E-05;-5,42495388537645E-05;10 µA;
0,262451171875;15,5007099608645;3,70635986328125E-05;0,262969970703125;2;741;7,78235606849194E-05;-5,81278510391712E-05;10 µA;
0,272216796875;15,5495379607412;3,58612060546875E-05;0,27264404296875;2;745;7,78235606849194E-05;-5,81278510391712E-05;10 µA;
0,281982421875;15,5983659606179;3,4368896484375E-05;0,282501220703125;2;749;7,78235606849194E-05;-5,81278510391712E-05;10 µA;
0,291748046875;15,6471939604946;3,27301025390625E-05;0,292266845703125;2;753;7,78235606849194E-05;-5,81278510391712E-05;10 µA;
0,301513671875;15,6960219603714;3,1109619140625E-05;0,301971435546875;2;757;7,78235606849194E-05;-5,81278510391712E-05;10 µA;
0,311279296875;15,7448499602481;2,9559326171875E-05;0,31170654296875;2;761;7,78235606849194E-05;-5,81278510391712E-05;10 µA;
0,321044921875;15,7936779601248;2,8131103515625E-05;0,321533203125;2;765;7,78235606849194E-05;-5,81278510391712E-05;10 µA;
0,330810546875;15,8425059600015;2,68280029296875E-05;0,331298828125;2;769;7,78235606849194E-05;-5,81278510391712E-05;10 µA;
0,340576171875;15,8913339598782;2,5653076171875E-05;0,34112548828125;2;773;7,78235606849194E-05;-5,81278510391712E-05;10 µA;
0,350341796875;15,940161959755;2,4591064453125E-05;0,350830078125;2;777;7,78235606849194E-05;-5,81278510391712E-05;10 µA;
0,360107421875;15,9889899596317;2,36358642578125E-05;0,36065673828125;2;781;7,78235606849194E-05;-5,81278510391712E-05;10 µA;
0,369873046875;16,0378179595084;2,276611328125E-05;0,370452880859375;2;785;7,78235606849194E-05;-5,81278510391712E-05;10 µA;
0,379638671875;16,0866459593851;2,19879150390625E-05;0,38018798828125;2;789;7,78235606849194E-05;-5,81278510391712E-05;10 µA;
0,389404296875;16,1354739592618;2,127685546875E-05;0,389984130859375;2;793;7,78235606849194E-05;-5,81278510391712E-05;10 µA;
0,399169921875;16,1843019591386;2,06329345703125E-05;0,39971923828125;2;797;7,78235606849194E-05;-5,81278510391712E-05;10 µA;
0,408935546875;16,2331299590153;2,0037841796875E-05;0,409454345703125;2;801;7,78235606849194E-05;-5,81278510391712E-05;10 µA;
0,418701171875;16,281957958892;1,94976806640625E-05;0,419281005859375;2;805;7,78235606849194E-05;-5,81278510391712E-05;10 µA;
0,428466796875;16,3307859587687;1,9000244140625E-05;0,4290771484375;2;809;7,78235606849194E-05;-5,81278510391712E-05;10 µA;
0,438232421875;16,3796139586455;1,85394287109375E-05;0,43878173828125;2;813;7,78235606849194E-05;-5,81278510391712E-05;10 µA;
0,447998046875;16,4284419585222;1,81182861328125E-05;0,44854736328125;2;817;7,78235606849194E-05;-5,81278510391712E-05;10 µA;
0,457763671875;16,4772699583989;1,773681640625E-05;0,45843505859375;2;821;7,78235606849194E-05;-5,81278510391712E-05;10 µA;
0,467529296875;16,5260979582756;1,73736572265625E-05;0,4681396484375;2;825;7,78235606849194E-05;-5,81278510391712E-05;10 µA;
0,477294921875;16,5749259581523;1,70440673828125E-05;0,477783203125;2;829;7,78235606849194E-05;-5,81278510391712E-05;10 µA;
0,487060546875;16,6237539580291;1,673583984375E-05;0,487640380859375;2;833;7,78235606849194E-05;-5,81278510391712E-05;10 µA;
0,496826171875;16,6725819579058;1,6448974609375E-05;0,4974365234375;2;837;7,78235606849194E-05;-5,81278510391712E-05;10 µA;
0,506591796875;16,7214099577825;1,61773681640625E-05;0,5072021484375;2;841;7,78235606849194E-05;-5,81278510391712E-05;10 µA;
0,516357421875;16,7702379576592;1,59271240234375E-05;0,516998291015625;2;845;7,78235606849194E-05;-5,81278510391712E-05;10 µA;
0,526123046875;16,8190659575359;1,56768798828125E-05;0,52679443359375;2;849;7,78235606849194E-05;-5,81278510391712E-05;10 µA;
0,535888671875;16,8678939574127;1,54571533203125E-05;0,536529541015625;2;853;7,78235606849194E-05;-5,81278510391712E-05;10 µA;
0,545654296875;16,9167219572894;1,52435302734375E-05;0,54638671875;2;857;7,78235606849194E-05;-5,81278510391712E-05;10 µA;
0,555419921875;16,9655499571661;1,5057373046875E-05;0,55609130859375;2;861;7,78235606849194E-05;-5,81278510391712E-05;10 µA;
0,565185546875;17,0143779570428;1,4874267578125E-05;0,56591796875;2;865;7,78235606849194E-05;-5,81278510391712E-05;10 µA;
0,574951171875;17,0632059569195;1,47125244140625E-05;0,57562255859375;2;869;7,78235606849194E-05;-5,81278510391712E-05;10 µA;
0,584716796875;17,1120339567963;1,45538330078125E-05;0,585357666015625;2;873;7,78235606849194E-05;-5,81278510391712E-05;10 µA;
0,594482421875;17,160861956673;1,44287109375E-05;0,59515380859375;2;877;7,78235606849194E-05;-5,81278510391712E-05;10 µA;
0,604248046875;17,2096899565497;1,43035888671875E-05;0,60498046875;2;881;7,78235606849194E-05;-5,81278510391712E-05;10 µA;
0,614013671875;17,2585179564264;1,4215087890625E-05;0,61474609375;2;885;7,78235606849194E-05;-5,81278510391712E-05;10 µA;
0,623779296875;17,3073459563032;1,41204833984375E-05;0,62457275390625;2;889;7,78235606849194E-05;-5,81278510391712E-05;10 µA;
0,633544921875;17,3561739561799;1,4044189453125E-05;0,634246826171875;2;893;7,78235606849194E-05;-5,81278510391712E-05;10 µA;
0,643310546875;17,4050019560566;1,39801025390625E-05;0,64410400390625;2;897;7,78235606849194E-05;-5,81278510391712E-05;10 µA;
0,653076171875;17,4538299559333;1,3946533203125E-05;0,65386962890625;2;901;7,78235606849194E-05;-5,81278510391712E-05;10 µA;
0,662841796875;17,50265795581;1,39129638671875E-05;0,663665771484375;2;905;7,78235606849194E-05;-5,81278510391712E-05;10 µA;
0,672607421875;17,5514859556868;1,39129638671875E-05;0,673431396484375;2;909;7,78235606849194E-05;-5,81278510391712E-05;10 µA;
0,682373046875;17,6003139555635;1,3922119140625E-05;0,6832275390625;2;913;7,78235606849194E-05;-5,81278510391712E-05;10 µA;
0,692138671875;17,6491419554402;1,396484375E-05;0,692962646484375;2;917;7,78235606849194E-05;-5,81278510391712E-05;10 µA;
0,701904296875;17,6979699553169;1,40350341796875E-05;0,7027587890625;2;921;7,78235606849194E-05;-5,81278510391712E-05;10 µA;
0,692138671875;17,7467979551936;1,30340576171875E-05;0,6929931640625;2;925;7,78235606849194E-05;-5,81278510391712E-05;10 µA;
0,682373046875;17,7956259550704;1,24725341796875E-05;0,683135986328125;2;929;7,78235606849194E-05;-5,81278510391712E-05;10 µA;
0,672607421875;17,8444539549471;1,20849609375E-05;0,673431396484375;2;933;7,78235606849194E-05;-5,81278510391712E-05;10 µA;
0,662841796875;17,8932819548238;1,17767333984375E-05;0,66363525390625;2;937;7,78235606849194E-05;-5,81278510391712E-05;10 µA;
0,653076171875;17,9421099547005;1,15478515625E-05;0,653778076171875;2;941;7,78235606849194E-05;-5,81278510391712E-05;10 µA;
0,643310546875;17,9909379545772;1,1328125E-05;0,64410400390625;2;945;7,78235606849194E-05;-5,81278510391712E-05;10 µA;
0,633544921875;18,039765954454;1,114501953125E-05;0,634307861328125;2;949;7,78235606849194E-05;-5,81278510391712E-05;10 µA;
0,623779296875;18,0885939543307;1,09954833984375E-05;0,624481201171875;2;953;7,78235606849194E-05;-5,81278510391712E-05;10 µA;
0,614013671875;18,1374219542074;1,08428955078125E-05;0,614776611328125;2;957;7,78235606849194E-05;-5,81278510391712E-05;10 µA;
0,604248046875;18,1862499540841;1,07086181640625E-05;0,605010986328125;2;961;7,78235606849194E-05;-5,81278510391712E-05;10 µA;
0,594482421875;18,2350779539609;1,05865478515625E-05;0,59515380859375;2;965;7,78235606849194E-05;-5,81278510391712E-05;10 µA;
0,584716796875;18,2839059538376;1,046142578125E-05;0,585357666015625;2;969;7,78235606849194E-05;-5,81278510391712E-05;10 µA;
0,574951171875;18,3327339537143;1,03607177734375E-05;0,575592041015625;2;973;7,78235606849194E-05;-5,81278510391712E-05;10 µA;
0,565185546875;18,381561953591;1,025390625E-05;0,5657958984375;2;977;7,78235606849194E-05;-5,81278510391712E-05;10 µA;
0,555419921875;18,4303899534677;1,015625E-05;0,556121826171875;2;981;7,78235606849194E-05;-5,81278510391712E-05;10 µA;
0,545654296875;18,4792179533445;1,00616455078125E-05;0,5462646484375;2;985;7,78235606849194E-05;-5,81278510391712E-05;10 µA;
0,535888671875;18,5280459532212;9,9761962890625E-06;0,536468505859375;2;989;7,78235606849194E-05;-5,81278510391712E-05;10 µA;
0,526123046875;18,5768739530979;9,8907470703125E-06;0,526702880859375;2;993;7,78235606849194E-05;-5,81278510391712E-05;10 µA;
0,516357421875;18,6257019529746;9,820556640625E-06;0,516998291015625;2;997;7,78235606849194E-05;-5,81278510391712E-05;10 µA;
0,506591796875;18,6745299528513;9,735107421875E-06;0,507171630859375;2;1001;7,78235606849194E-05;-5,81278510391712E-05;10 µA;
0,496826171875;18,7233579527281;9,661865234375E-06;0,4974365234375;2;1005;7,78235606849194E-05;-5,81278510391712E-05;10 µA;
0,487060546875;18,7721859526048;9,5855712890625E-06;0,48760986328125;2;1009;7,78235606849194E-05;-5,81278510391712E-05;10 µA;
0,477294921875;18,8210139524815;9,5123291015625E-06;0,47784423828125;2;1013;7,78235606849194E-05;-5,81278510391712E-05;10 µA;
0,467529296875;18,8698419523582;9,43603515625E-06;0,468109130859375;2;1017;7,78235606849194E-05;-5,81278510391712E-05;10 µA;
0,457763671875;18,9186699522349;9,3597412109375E-06;0,458404541015625;2;1021;7,78235606849194E-05;-5,81278510391712E-05;10 µA;
0,447998046875;18,9674979521117;9,2803955078125E-06;0,448455810546875;2;1025;7,78235606849194E-05;-5,81278510391712E-05;10 µA;
0,438232421875;19,0163259519884;9,210205078125E-06;0,438690185546875;2;1029;7,78235606849194E-05;-5,81278510391712E-05;10 µA;
0,428466796875;19,0651539518651;9,124755859375E-06;0,428985595703125;2;1033;7,78235606849194E-05;-5,81278510391712E-05;10 µA;
0,418701171875;19,1139819517418;9,0423583984375E-06;0,419158935546875;2;1037;7,78235606849194E-05;-5,81278510391712E-05;10 µA;
0,408935546875;19,1628099516186;8,9569091796875E-06;0,409393310546875;2;1041;7,78235606849194E-05;-5,81278510391712E-05;10 µA;
0,399169921875;19,2116379514953;8,8836669921875E-06;0,399658203125;2;1045;7,78235606849194E-05;-5,81278510391712E-05;10 µA;
0,389404296875;19,260465951372;8,7890625E-06;0,38983154296875;2;1049;7,78235606849194E-05;-5,81278510391712E-05;10 µA;
0,379638671875;19,3092939512487;8,69140625E-06;0,38006591796875;2;1053;7,78235606849194E-05;-5,81278510391712E-05;10 µA;
0,369873046875;19,3581219511254;8,5784912109375E-06;0,370330810546875;2;1057;7,78235606849194E-05;-5,81278510391712E-05;10 µA;
0,360107421875;19,4069499510022;8,4503173828125E-06;0,3604736328125;2;1061;7,78235606849194E-05;-5,81278510391712E-05;10 µA;
0,350341796875;19,4557779508789;8,2916259765625E-06;0,350677490234375;2;1065;7,78235606849194E-05;-5,81278510391712E-05;10 µA;
0,340576171875;19,5046059507556;8,1024169921875E-06;0,340972900390625;2;1069;7,78235606849194E-05;-5,81278510391712E-05;10 µA;
0,330810546875;19,5534339506323;7,84912109375E-06;0,3311767578125;2;1073;7,78235606849194E-05;-5,81278510391712E-05;10 µA;
0,321044921875;19,602261950509;7,525634765625E-06;0,321441650390625;2;1077;7,78235606849194E-05;-5,81278510391712E-05;10 µA;
0,311279296875;19,6510899503858;7,1014404296875E-06;0,31158447265625;2;1081;7,78235606849194E-05;-5,81278510391712E-05;10 µA;
0,301513671875;19,6999179502625;6,536865234375E-06;0,3017578125;2;1085;7,78235606849194E-05;-5,81278510391712E-05;10 µA;
0,291748046875;19,7487459501392;5,780029296875E-06;0,292022705078125;2;1089;7,78235606849194E-05;-5,81278510391712E-05;10 µA;
0,281982421875;19,7975739500159;4,7637939453125E-06;0,282257080078125;2;1093;7,78235606849194E-05;-5,81278510391712E-05;10 µA;
0,272216796875;19,8464019498927;3,41400146484375E-06;0,272430419921875;2;1097;7,78235606849194E-05;-5,81278510391712E-05;10 µA;
0,262451171875;19,8952299497694;1,64947509765625E-06;0,262786865234375;2;1101;7,78235606849194E-05;-5,81278510391712E-05;1 µA;
0,252685546875;19,9440579496461;-6,219482421875E-07;0,2528076171875;2;1105;7,78235606849194E-05;-5,81278510391712E-05;1 µA;
0,242919921875;19,9928859495228;-3,4503173828125E-06;0,242828369140625;2;1109;7,78235606849194E-05;-5,81278510391712E-05;1 µA;
0,233154296875;20,0417139493995;-6,8780517578125E-06;0,232818603515625;2;1113;7,78235606849194E-05;-5,81278510391712E-05;1 µA;
0,223388671875;20,0905419492763;-1,08123779296875E-05;0,22344970703125;2;1117;7,78235606849194E-05;-5,81278510391712E-05;10 µA;
0,213623046875;20,139369949153;-1,51092529296875E-05;0,213592529296875;2;1121;7,78235606849194E-05;-5,81278510391712E-05;10 µA;
0,203857421875;20,1881979490297;-1,95526123046875E-05;0,20391845703125;2;1125;7,78235606849194E-05;-5,81278510391712E-05;10 µA;
0,194091796875;20,2370259489064;-2,38067626953125E-05;0,194061279296875;2;1129;7,78235606849194E-05;-5,81278510391712E-05;10 µA;
0,184326171875;20,2858539487831;-2,7581787109375E-05;0,184173583984375;2;1133;7,78235606849194E-05;-5,81278510391712E-05;10 µA;
0,174560546875;20,3346819486599;-3,055419921875E-05;0,1744384765625;2;1137;7,78235606849194E-05;-5,81278510391712E-05;10 µA;
0,164794921875;20,3835099485366;-3,2550048828125E-05;0,16455078125;2;1141;7,78235606849194E-05;-5,81278510391712E-05;10 µA;
0,155029296875;20,4323379484133;-3,350830078125E-05;0,154815673828125;2;1145;7,78235606849194E-05;-5,81278510391712E-05;10 µA;
0,145263671875;20,48116594829;-3,35418701171875E-05;0,145111083984375;2;1149;7,78235606849194E-05;-5,81278510391712E-05;10 µA;
0,135498046875;20,5299939481667;-3,2794189453125E-05;0,13531494140625;2;1153;7,78235606849194E-05;-5,81278510391712E-05;10 µA;
0,125732421875;20,5788219480435;-3,1536865234375E-05;0,12554931640625;2;1157;7,78235606849194E-05;-5,81278510391712E-05;10 µA;
0,115966796875;20,6276499479202;-2,999267578125E-05;0,115875244140625;2;1161;7,78235606849194E-05;-5,81278510391712E-05;10 µA;
0,106201171875;20,6764779477969;-2,83477783203125E-05;0,10601806640625;2;1165;7,78235606849194E-05;-5,81278510391712E-05;10 µA;
0,096435546875;20,7253059476736;-2,67364501953125E-05;0,096160888671875;2;1169;7,78235606849194E-05;-5,81278510391712E-05;10 µA;
0,086669921875;20,7741339475504;-2,51983642578125E-05;0,086456298828125;2;1173;7,78235606849194E-05;-5,81278510391712E-05;10 µA;
0,076904296875;20,8229619474271;-2,3797607421875E-05;0,076690673828125;2;1177;7,78235606849194E-05;-5,81278510391712E-05;10 µA;
0,067138671875;20,8717899473038;-2,2540283203125E-05;0,066986083984375;2;1181;7,78235606849194E-05;-5,81278510391712E-05;10 µA;
0,057373046875;20,9206179471805;-2,1429443359375E-05;0,057098388671875;2;1185;7,78235606849194E-05;-5,81278510391712E-05;10 µA;
0,047607421875;20,9694459470572;-2,0452880859375E-05;0,0475341796875;2;1189;7,78235606849194E-05;-5,81278510391712E-05;10 µA;
0,037841796875;21,018273946934;-1,9580078125E-05;0,037799072265625;2;1193;7,78235606849194E-05;-5,81278510391712E-05;10 µA;
0,028076171875;21,0671019468107;-1,88323974609375E-05;0,0280242919921875;2;1197;7,78235606849194E-05;-5,81278510391712E-05;10 µA;
0,018310546875;21,1159299466874;-1,81671142578125E-05;0,0182281494140625;2;1201;7,78235606849194E-05;-5,81278510391712E-05;10 µA;
0,008544921875;21,1647579465641;-1,7608642578125E-05;0,008453369140625;2;1205;7,78235606849194E-05;-5,81278510391712E-05;10 µA;
-0,001220703125;21,2135859464408;-1,71051025390625E-05;-0,0013458251953125;2;1209;7,78235606849194E-05;-5,81278510391712E-05;10 µA;
-0,010986328125;21,2624139463176;-1,6680908203125E-05;-0,0110870361328125;2;1213;7,78235606849194E-05;-5,81278510391712E-05;10 µA;
-0,020751953125;21,3112419461943;-1,63177490234375E-05;-0,0208770751953125;2;1217;7,78235606849194E-05;-5,81278510391712E-05;10 µA;
-0,030517578125;21,360069946071;-1,60186767578125E-05;-0,0306243896484375;2;1221;7,78235606849194E-05;-5,81278510391712E-05;10 µA;
-0,040283203125;21,4088979459477;-1,57684326171875E-05;-0,040435791015625;2;1225;7,78235606849194E-05;-5,81278510391712E-05;10 µA;
-0,050048828125;21,4577259458244;-1,5576171875E-05;-0,050323486328125;2;1229;7,78235606849194E-05;-5,81278510391712E-05;10 µA;
-0,059814453125;21,5065539457012;-1,5423583984375E-05;-0,06011962890625;2;1233;7,78235606849194E-05;-5,81278510391712E-05;10 µA;
-0,069580078125;21,5553819455779;-1,533203125E-05;-0,07000732421875;2;1237;7,78235606849194E-05;-5,81278510391712E-05;10 µA;
-0,079345703125;21,6042099454546;-1,52862548828125E-05;-0,07965087890625;2;1241;7,78235606849194E-05;-5,81278510391712E-05;10 µA;
-0,089111328125;21,6530379453313;-1,5283203125E-05;-0,0894775390625;2;1245;7,78235606849194E-05;-5,81278510391712E-05;10 µA;
-0,098876953125;21,7018659452081;-1,53167724609375E-05;-0,0992431640625;2;1249;7,78235606849194E-05;-5,81278510391712E-05;10 µA;
-0,108642578125;21,7506939450848;-1,53961181640625E-05;-0,1090087890625;2;1253;7,78235606849194E-05;-5,81278510391712E-05;10 µA;
-0,118408203125;21,7995219449615;-1,5509033203125E-05;-0,11883544921875;2;1257;7,78235606849194E-05;-5,81278510391712E-05;10 µA;
-0,128173828125;21,8483499448382;-1,56494140625E-05;-0,12860107421875;2;1261;7,78235606849194E-05;-5,81278510391712E-05;10 µA;
-0,137939453125;21,8971779447149;-1,5814208984375E-05;-0,1383056640625;2;1265;7,78235606849194E-05;-5,81278510391712E-05;10 µA;
-0,147705078125;21,9460059445917;-1,59942626953125E-05;-0,148193359375;2;1269;7,78235606849194E-05;-5,81278510391712E-05;10 µA;
-0,157470703125;21,9948339444684;-1,6180419921875E-05;-0,15789794921875;2;1273;7,78235606849194E-05;-5,81278510391712E-05;10 µA;
-0,167236328125;22,0436619443451;-1,63726806640625E-05;-0,16766357421875;2;1277;7,78235606849194E-05;-5,81278510391712E-05;10 µA;
-0,177001953125;22,0924899442218;-1,65618896484375E-05;-0,177520751953125;2;1281;7,78235606849194E-05;-5,81278510391712E-05;10 µA;
-0,186767578125;22,1413179440985;-1,67388916015625E-05;-0,187286376953125;2;1285;7,78235606849194E-05;-5,81278510391712E-05;10 µA;
-0,196533203125;22,1901459439753;-1,68853759765625E-05;-0,197052001953125;2;1289;7,78235606849194E-05;-5,81278510391712E-05;10 µA;
-0,196533203125;22,238973943852;-1,62994384765625E-05;-0,19696044921875;2;1293;7,78235606849194E-05;-5,81278510391712E-05;10 µA;
-0,186767578125;22,2878019437287;-1,52374267578125E-05;-0,187225341796875;2;1297;7,78235606849194E-05;-5,81278510391712E-05;10 µA;
-0,177001953125;22,3366299436054;-1,43218994140625E-05;-0,17742919921875;2;1301;7,78235606849194E-05;-5,81278510391712E-05;10 µA;
-0,167236328125;22,3854579434822;-1,3525390625E-05;-0,1676025390625;2;1305;7,78235606849194E-05;-5,81278510391712E-05;10 µA;
-0,157470703125;22,4342859433589;-1,28204345703125E-05;-0,157867431640625;2;1309;7,78235606849194E-05;-5,81278510391712E-05;10 µA;
-0,147705078125;22,4831139432356;-1,21917724609375E-05;-0,148162841796875;2;1313;7,78235606849194E-05;-5,81278510391712E-05;10 µA;
-0,137939453125;22,5319419431123;-1,163330078125E-05;-0,13836669921875;2;1317;7,78235606849194E-05;-5,81278510391712E-05;10 µA;
-0,128173828125;22,580769942989;-1,112060546875E-05;-0,12847900390625;2;1321;7,78235606849194E-05;-5,81278510391712E-05;10 µA;
-0,118408203125;22,6295979428658;-1,0650634765625E-05;-0,11865234375;2;1325;7,78235606849194E-05;-5,81278510391712E-05;10 µA;
-0,108642578125;22,6784259427425;-1,0223388671875E-05;-0,1090087890625;2;1329;7,78235606849194E-05;-5,81278510391712E-05;10 µA;
-0,098876953125;22,7272539426192;-9,82666015625E-06;-0,09912109375;2;1333;7,78235606849194E-05;-5,81278510391712E-05;10 µA;
-0,089111328125;22,7760819424959;-9,4573974609375E-06;-0,089447021484375;2;1337;7,78235606849194E-05;-5,81278510391712E-05;10 µA;
-0,079345703125;22,8249099423726;-9,124755859375E-06;-0,079620361328125;2;1341;7,78235606849194E-05;-5,81278510391712E-05;10 µA;
-0,069580078125;22,8737379422494;-8,7982177734375E-06;-0,069854736328125;2;1345;7,78235606849194E-05;-5,81278510391712E-05;10 µA;
-0,059814453125;22,9225659421261;-8,502197265625E-06;-0,060089111328125;2;1349;7,78235606849194E-05;-5,81278510391712E-05;10 µA;
-0,050048828125;22,9713939420028;-8,2275390625E-06;-0,05023193359375;2;1353;7,78235606849194E-05;-5,81278510391712E-05;10 µA;
-0,040283203125;23,0202219418795;-7,9620361328125E-06;-0,0404266357421875;2;1357;7,78235606849194E-05;-5,81278510391712E-05;10 µA;
-0,030517578125;23,0690499417562;-7,71484375E-06;-0,030609130859375;2;1361;7,78235606849194E-05;-5,81278510391712E-05;10 µA;
-0,020751953125;23,117877941633;-7,4737548828125E-06;-0,0208709716796875;2;1365;7,78235606849194E-05;-5,81278510391712E-05;10 µA;
-0,010986328125;23,1667059415097;-7,2418212890625E-06;-0,0111053466796875;2;1369;7,78235606849194E-05;-5,81278510391712E-05;10 µA;
-0,001220703125;23,2155339413864;-7,03125E-06;-0,0012786865234375;2;1373;7,78235606849194E-05;-5,81278510391712E-05;10 µA;
0,008544921875;23,2643619412631;-6,8023681640625E-06;0,00846252441406251;2;1377;7,78235606849194E-05;-5,81278510391712E-05;10 µA;
0,018310546875;23,3131899411399;-6,5765380859375E-06;0,0182525634765625;2;1381;7,78235606849194E-05;-5,81278510391712E-05;10 µA;
0,028076171875;23,3620179410166;-6,34765625E-06;0,02803955078125;2;1385;7,78235606849194E-05;-5,81278510391712E-05;10 µA;
0,037841796875;23,4108459408933;-6,103515625E-06;0,0378021240234375;2;1389;7,78235606849194E-05;-5,81278510391712E-05;10 µA;
0,047607421875;23,45967394077;-5,8502197265625E-06;0,0475830078125;2;1393;7,78235606849194E-05;-5,81278510391712E-05;10 µA;
0,057373046875;23,5085019406467;-5,56640625E-06;0,0572509765625;2;1397;7,78235606849194E-05;-5,81278510391712E-05;10 µA;
0,067138671875;23,5573299405235;-5,23681640625E-06;0,06707763671875;2;1401;7,78235606849194E-05;-5,81278510391712E-05;10 µA;
0,076904296875;23,6061579404002;-4,8492431640625E-06;0,076873779296875;2;1405;7,78235606849194E-05;-5,81278510391712E-05;10 µA;
0,086669921875;23,6549859402769;-4,37225341796875E-06;0,086273193359375;2;1409;7,78235606849194E-05;-5,81278510391712E-05;1 µA;
0,096435546875;23,7038139401536;-3,7628173828125E-06;0,096160888671875;2;1413;7,78235606849194E-05;-5,81278510391712E-05;1 µA;
0,106201171875;23,7526419400303;-2,9644775390625E-06;0,105926513671875;2;1417;7,78235606849194E-05;-5,81278510391712E-05;1 µA;
0,115966796875;23,8014699399071;-1,91192626953125E-06;0,115814208984375;2;1421;7,78235606849194E-05;-5,81278510391712E-05;1 µA;
0,125732421875;23,8502979397838;-5,2642822265625E-07;0,125732421875;2;1425;7,78235606849194E-05;-5,81278510391712E-05;1 µA;
0,135498046875;23,8991259396605;1,26617431640625E-06;0,1356201171875;2;1429;7,78235606849194E-05;-5,81278510391712E-05;1 µA;
0,145263671875;23,9479539395372;3,5614013671875E-06;0,145660400390625;2;1433;7,78235606849194E-05;-5,81278510391712E-05;1 µA;
0,155029296875;23,9967819394139;6,42547607421875E-06;0,1556396484375;2;1437;7,78235606849194E-05;-5,81278510391712E-05;1 µA;
0,164794921875;24,0456099392907;9,8388671875E-06;0,1649169921875;2;1441;7,78235606849194E-05;-5,81278510391712E-05;10 µA;
0,174560546875;24,0944379391674;1,3787841796875E-05;0,17474365234375;2;1445;7,78235606849194E-05;-5,81278510391712E-05;10 µA;
0,184326171875;24,1432659390441;1,8096923828125E-05;0,184600830078125;2;1449;7,78235606849194E-05;-5,81278510391712E-05;10 µA;
0,194091796875;24,1920939389208;2,25494384765625E-05;0,1943359375;2;1453;7,78235606849194E-05;-5,81278510391712E-05;10 µA;
0,203857421875;24,2409219387976;2,6837158203125E-05;0,20416259765625;2;1457;7,78235606849194E-05;-5,81278510391712E-05;10 µA;
0,213623046875;24,2897499386743;3,06610107421875E-05;0,21405029296875;2;1461;7,78235606849194E-05;-5,81278510391712E-05;10 µA;
0,223388671875;24,338577938551;3,370361328125E-05;0,223785400390625;2;1465;7,78235606849194E-05;-5,81278510391712E-05;10 µA;
0,233154296875;24,3874059384277;3,57757568359375E-05;0,233612060546875;2;1469;7,78235606849194E-05;-5,81278510391712E-05;10 µA;
0,242919921875;24,4362339383044;3,68194580078125E-05;0,243438720703125;2;1473;7,78235606849194E-05;-5,81278510391712E-05;10 µA;
0,252685546875;24,4850619381812;3,69110107421875E-05;0,253143310546875;2;1477;7,78235606849194E-05;-5,81278510391712E-05;10 µA;
0,260009765625;24,5216829380887;3,64532470703125E-05;0,260498046875;2;1480;7,78235606849194E-05;-5,81278510391712E-05;10 µA;