File: Grupo 8 03-10-2023/Grupo 8 CV com par Ferri_Ferro.txt
Potential applied (V);Time (s);WE(1).Current (A);WE(1).Potential (V);Scan;Index;Q+;Q-;Current range;Overload
0,262451171875;7,61093298078424;7,66082763671875E-05;0,263275146484375;1;1;0,000143168404370117;-8,20270522094727E-05;10 µA;Current overload
0,272216796875;7,70853298053783;5,1910400390625E-05;0,2724609375;1;5;0,000143168404370117;-8,20270522094727E-05;100 µA;
0,281982421875;7,80613298029141;4,28192138671875E-05;0,2822265625;1;9;0,000143168404370117;-8,20270522094727E-05;100 µA;
0,291748046875;7,90373298004499;3,74053955078125E-05;0,2923583984375;1;13;0,000143168404370117;-8,20270522094727E-05;10 µA;
0,301513671875;8,00133297979858;3,3636474609375E-05;0,302093505859375;1;17;0,000143168404370117;-8,20270522094727E-05;10 µA;
0,311279296875;8,09893297955216;3,0767822265625E-05;0,31182861328125;1;21;0,000143168404370117;-8,20270522094727E-05;10 µA;
0,321044921875;8,19653297930574;2,8472900390625E-05;0,32147216796875;1;25;0,000143168404370117;-8,20270522094727E-05;10 µA;
0,330810546875;8,29413297905933;2,65869140625E-05;0,331298828125;1;29;0,000143168404370117;-8,20270522094727E-05;10 µA;
0,340576171875;8,39173297881291;2,50091552734375E-05;0,341094970703125;1;33;0,000143168404370117;-8,20270522094727E-05;10 µA;
0,350341796875;8,48933297856649;2,3663330078125E-05;0,35089111328125;1;37;0,000143168404370117;-8,20270522094727E-05;10 µA;
0,360107421875;8,58693297832008;2,249755859375E-05;0,36053466796875;1;41;0,000143168404370117;-8,20270522094727E-05;10 µA;
0,369873046875;8,68453297807366;2,14813232421875E-05;0,37042236328125;1;45;0,000143168404370117;-8,20270522094727E-05;10 µA;
0,379638671875;8,78213297782725;2,05780029296875E-05;0,380126953125;1;49;0,000143168404370117;-8,20270522094727E-05;10 µA;
0,389404296875;8,87973297758083;1,9781494140625E-05;0,38995361328125;1;53;0,000143168404370117;-8,20270522094727E-05;10 µA;
0,399169921875;8,97733297733441;1,90704345703125E-05;0,39971923828125;1;57;0,000143168404370117;-8,20270522094727E-05;10 µA;
0,408935546875;9,074932977088;1,8438720703125E-05;0,409454345703125;1;61;0,000143168404370117;-8,20270522094727E-05;10 µA;
0,418701171875;9,17253297684158;1,78680419921875E-05;0,419219970703125;1;65;0,000143168404370117;-8,20270522094727E-05;10 µA;
0,428466796875;9,27013297659516;1,734619140625E-05;0,42901611328125;1;69;0,000143168404370117;-8,20270522094727E-05;10 µA;
0,438232421875;9,36773297634875;1,685791015625E-05;0,438812255859375;1;73;0,000143168404370117;-8,20270522094727E-05;10 µA;
0,447998046875;9,46533297610233;1,6412353515625E-05;0,448577880859375;1;77;0,000143168404370117;-8,20270522094727E-05;10 µA;
0,457763671875;9,56293297585592;1,60064697265625E-05;0,458343505859375;1;81;0,000143168404370117;-8,20270522094727E-05;10 µA;
0,467529296875;9,6605329756095;1,563720703125E-05;0,468170166015625;1;85;0,000143168404370117;-8,20270522094727E-05;10 µA;
0,477294921875;9,75813297536308;1,52984619140625E-05;0,4779052734375;1;89;0,000143168404370117;-8,20270522094727E-05;10 µA;
0,487060546875;9,85573297511667;1,49871826171875E-05;0,487640380859375;1;93;0,000143168404370117;-8,20270522094727E-05;10 µA;
0,496826171875;9,95333297487025;1,4691162109375E-05;0,497467041015625;1;97;0,000143168404370117;-8,20270522094727E-05;10 µA;
0,506591796875;10,0509329746238;1,44134521484375E-05;0,5072021484375;1;101;0,000143168404370117;-8,20270522094727E-05;10 µA;
0,516357421875;10,1485329743774;1,41510009765625E-05;0,516998291015625;1;105;0,000143168404370117;-8,20270522094727E-05;10 µA;
0,526123046875;10,246132974131;1,39068603515625E-05;0,52679443359375;1;109;0,000143168404370117;-8,20270522094727E-05;10 µA;
0,535888671875;10,3437329738846;1,368408203125E-05;0,536529541015625;1;113;0,000143168404370117;-8,20270522094727E-05;10 µA;
0,545654296875;10,4413329736382;1,3482666015625E-05;0,546356201171875;1;117;0,000143168404370117;-8,20270522094727E-05;10 µA;
0,555419921875;10,5389329733918;1,329345703125E-05;0,556060791015625;1;121;0,000143168404370117;-8,20270522094727E-05;10 µA;
0,565185546875;10,6365329731453;1,31134033203125E-05;0,56585693359375;1;125;0,000143168404370117;-8,20270522094727E-05;10 µA;
0,574951171875;10,7341329728989;1,2939453125E-05;0,575653076171875;1;129;0,000143168404370117;-8,20270522094727E-05;10 µA;
0,584716796875;10,8317329726525;1,27777099609375E-05;0,585479736328125;1;133;0,000143168404370117;-8,20270522094727E-05;10 µA;
0,594482421875;10,9293329724061;1,26312255859375E-05;0,59521484375;1;137;0,000143168404370117;-8,20270522094727E-05;10 µA;
0,604248046875;11,0269329721597;1,25E-05;0,60498046875;1;141;0,000143168404370117;-8,20270522094727E-05;10 µA;
0,614013671875;11,1245329719133;1,2384033203125E-05;0,614837646484375;1;145;0,000143168404370117;-8,20270522094727E-05;10 µA;
0,623779296875;11,2221329716668;1,22833251953125E-05;0,624542236328125;1;149;0,000143168404370117;-8,20270522094727E-05;10 µA;
0,633544921875;11,3197329714204;1,21856689453125E-05;0,63427734375;1;153;0,000143168404370117;-8,20270522094727E-05;10 µA;
0,643310546875;11,417332971174;1,209716796875E-05;0,64410400390625;1;157;0,000143168404370117;-8,20270522094727E-05;10 µA;
0,653076171875;11,5149329709276;1,2017822265625E-05;0,6539306640625;1;161;0,000143168404370117;-8,20270522094727E-05;10 µA;
0,662841796875;11,6125329706812;1,1956787109375E-05;0,663665771484375;1;165;0,000143168404370117;-8,20270522094727E-05;10 µA;
0,672607421875;11,7101329704348;1,19171142578125E-05;0,673370361328125;1;169;0,000143168404370117;-8,20270522094727E-05;10 µA;
0,682373046875;11,8077329701883;1,18865966796875E-05;0,683197021484375;1;173;0,000143168404370117;-8,20270522094727E-05;10 µA;
0,692138671875;11,9053329699419;1,18743896484375E-05;0,692962646484375;1;177;0,000143168404370117;-8,20270522094727E-05;10 µA;
0,701904296875;12,0029329696955;1,18743896484375E-05;0,702850341796875;1;181;0,000143168404370117;-8,20270522094727E-05;10 µA;
0,692138671875;12,1005329694491;1,1199951171875E-05;0,6929931640625;1;185;0,000143168404370117;-8,20270522094727E-05;10 µA;
0,682373046875;12,1981329692027;1,0809326171875E-05;0,68316650390625;1;189;0,000143168404370117;-8,20270522094727E-05;10 µA;
0,672607421875;12,2957329689563;1,05224609375E-05;0,67333984375;1;193;0,000143168404370117;-8,20270522094727E-05;10 µA;
0,662841796875;12,3933329687098;1,02996826171875E-05;0,66363525390625;1;197;0,000143168404370117;-8,20270522094727E-05;10 µA;
0,653076171875;12,4909329684634;1,01104736328125E-05;0,653839111328125;1;201;0,000143168404370117;-8,20270522094727E-05;10 µA;
0,643310546875;12,588532968217;9,9517822265625E-06;0,644012451171875;1;205;0,000143168404370117;-8,20270522094727E-05;10 µA;
0,633544921875;12,6861329679706;9,8052978515625E-06;0,634368896484375;1;209;0,000143168404370117;-8,20270522094727E-05;10 µA;
0,623779296875;12,7837329677242;9,6649169921875E-06;0,62451171875;1;213;0,000143168404370117;-8,20270522094727E-05;10 µA;
0,614013671875;12,8813329674778;9,5367431640625E-06;0,614776611328125;1;217;0,000143168404370117;-8,20270522094727E-05;10 µA;
0,604248046875;12,9789329672313;9,4268798828125E-06;0,60491943359375;1;221;0,000143168404370117;-8,20270522094727E-05;10 µA;
0,594482421875;13,0765329669849;9,3231201171875E-06;0,59515380859375;1;225;0,000143168404370117;-8,20270522094727E-05;10 µA;
0,584716796875;13,1741329667385;9,234619140625E-06;0,58538818359375;1;229;0,000143168404370117;-8,20270522094727E-05;10 µA;
0,574951171875;13,2717329664921;9,14306640625E-06;0,575592041015625;1;233;0,000143168404370117;-8,20270522094727E-05;10 µA;
0,565185546875;13,3693329662457;9,051513671875E-06;0,5657958984375;1;237;0,000143168404370117;-8,20270522094727E-05;10 µA;
0,555419921875;13,4669329659993;8,9630126953125E-06;0,55596923828125;1;241;0,000143168404370117;-8,20270522094727E-05;10 µA;
0,545654296875;13,5645329657528;8,87451171875E-06;0,546295166015625;1;245;0,000143168404370117;-8,20270522094727E-05;10 µA;
0,535888671875;13,6621329655064;8,795166015625E-06;0,536529541015625;1;249;0,000143168404370117;-8,20270522094727E-05;10 µA;
0,526123046875;13,75973296526;8,7249755859375E-06;0,526702880859375;1;253;0,000143168404370117;-8,20270522094727E-05;10 µA;
0,516357421875;13,8573329650136;8,65478515625E-06;0,51690673828125;1;257;0,000143168404370117;-8,20270522094727E-05;10 µA;
0,506591796875;13,9549329647672;8,5845947265625E-06;0,507171630859375;1;261;0,000143168404370117;-8,20270522094727E-05;10 µA;
0,496826171875;14,0525329645208;8,5113525390625E-06;0,497406005859375;1;265;0,000143168404370117;-8,20270522094727E-05;10 µA;
0,487060546875;14,1501329642743;8,43505859375E-06;0,487518310546875;1;269;0,000143168404370117;-8,20270522094727E-05;10 µA;
0,477294921875;14,2477329640279;8,36181640625E-06;0,477874755859375;1;273;0,000143168404370117;-8,20270522094727E-05;10 µA;
0,467529296875;14,3453329637815;8,2916259765625E-06;0,468048095703125;1;277;0,000143168404370117;-8,20270522094727E-05;10 µA;
0,457763671875;14,4429329635351;8,2305908203125E-06;0,45831298828125;1;281;0,000143168404370117;-8,20270522094727E-05;10 µA;
0,447998046875;14,5405329632887;8,172607421875E-06;0,448516845703125;1;285;0,000143168404370117;-8,20270522094727E-05;10 µA;
0,438232421875;14,6381329630423;8,10546875E-06;0,438751220703125;1;289;0,000143168404370117;-8,20270522094727E-05;10 µA;
0,428466796875;14,7357329627959;8,0322265625E-06;0,428955078125;1;293;0,000143168404370117;-8,20270522094727E-05;10 µA;
0,418701171875;14,8333329625494;7,958984375E-06;0,419189453125;1;297;0,000143168404370117;-8,20270522094727E-05;10 µA;
0,408935546875;14,930932962303;7,879638671875E-06;0,409393310546875;1;301;0,000143168404370117;-8,20270522094727E-05;10 µA;
0,399169921875;15,0285329620566;7,8033447265625E-06;0,399627685546875;1;305;0,000143168404370117;-8,20270522094727E-05;10 µA;
0,389404296875;15,1261329618102;7,7301025390625E-06;0,389862060546875;1;309;0,000143168404370117;-8,20270522094727E-05;10 µA;
0,379638671875;15,2237329615638;7,65380859375E-06;0,3800048828125;1;313;0,000143168404370117;-8,20270522094727E-05;10 µA;
0,369873046875;15,3213329613174;7,5592041015625E-06;0,370269775390625;1;317;0,000143168404370117;-8,20270522094727E-05;10 µA;
0,360107421875;15,4189329610709;7,4432373046875E-06;0,3604736328125;1;321;0,000143168404370117;-8,20270522094727E-05;10 µA;
0,350341796875;15,5165329608245;7,305908203125E-06;0,3507080078125;1;325;0,000143168404370117;-8,20270522094727E-05;10 µA;
0,340576171875;15,6141329605781;7,1502685546875E-06;0,340911865234375;1;329;0,000143168404370117;-8,20270522094727E-05;10 µA;
0,330810546875;15,7117329603317;6,9580078125E-06;0,331146240234375;1;333;0,000143168404370117;-8,20270522094727E-05;10 µA;
0,321044921875;15,8093329600853;6,7230224609375E-06;0,321380615234375;1;337;0,000143168404370117;-8,20270522094727E-05;10 µA;
0,311279296875;15,9069329598389;6,4117431640625E-06;0,3116455078125;1;341;0,000143168404370117;-8,20270522094727E-05;10 µA;
0,301513671875;16,0045329595924;5,987548828125E-06;0,301849365234375;1;345;0,000143168404370117;-8,20270522094727E-05;10 µA;
0,291748046875;16,102132959346;5,419921875E-06;0,292022705078125;1;349;0,000143168404370117;-8,20270522094727E-05;10 µA;
0,281982421875;16,1997329590996;4,67315673828125E-06;0,2822265625;1;353;0,000143168404370117;-8,20270522094727E-05;10 µA;
0,272216796875;16,2973329588532;3,6663818359375E-06;0,272796630859375;1;357;0,000143168404370117;-8,20270522094727E-05;1 µA;
0,262451171875;16,3949329586068;2,3663330078125E-06;0,26287841796875;1;361;0,000143168404370117;-8,20270522094727E-05;1 µA;
0,252685546875;16,4925329583604;6,8359375E-07;0,2529296875;1;365;0,000143168404370117;-8,20270522094727E-05;1 µA;
0,242919921875;16,5901329581139;-1,431884765625E-06;0,243011474609375;1;369;0,000143168404370117;-8,20270522094727E-05;1 µA;
0,233154296875;16,6877329578675;-3,99017333984375E-06;0,23297119140625;1;373;0,000143168404370117;-8,20270522094727E-05;1 µA;
0,223388671875;16,7853329576211;-6,927490234375E-06;0,223480224609375;1;377;0,000143168404370117;-8,20270522094727E-05;10 µA;
0,213623046875;16,8829329573747;-1,0113525390625E-05;0,213714599609375;1;381;0,000143168404370117;-8,20270522094727E-05;10 µA;
0,203857421875;16,9805329571283;-1,33392333984375E-05;0,203948974609375;1;385;0,000143168404370117;-8,20270522094727E-05;10 µA;
0,194091796875;17,0781329568819;-1,639404296875E-05;0,194091796875;1;389;0,000143168404370117;-8,20270522094727E-05;10 µA;
0,184326171875;17,1757329566354;-1,90338134765625E-05;0,18426513671875;1;393;0,000143168404370117;-8,20270522094727E-05;10 µA;
0,174560546875;17,273332956389;-2,10723876953125E-05;0,174560546875;1;397;0,000143168404370117;-8,20270522094727E-05;10 µA;
0,164794921875;17,3709329561426;-2,23602294921875E-05;0,164642333984375;1;401;0,000143168404370117;-8,20270522094727E-05;10 µA;
0,155029296875;17,4685329558962;-2,28668212890625E-05;0,154998779296875;1;405;0,000143168404370117;-8,20270522094727E-05;10 µA;
0,145263671875;17,5661329556498;-2,2723388671875E-05;0,145233154296875;1;409;0,000143168404370117;-8,20270522094727E-05;10 µA;
0,135498046875;17,6637329554034;-2,20733642578125E-05;0,135406494140625;1;413;0,000143168404370117;-8,20270522094727E-05;10 µA;
0,125732421875;17,7613329551569;-2,110595703125E-05;0,125640869140625;1;417;0,000143168404370117;-8,20270522094727E-05;10 µA;
0,115966796875;17,8589329549105;-1,9989013671875E-05;0,1158447265625;1;421;0,000143168404370117;-8,20270522094727E-05;10 µA;
0,106201171875;17,9565329546641;-1,88385009765625E-05;0,1060791015625;1;425;0,000143168404370117;-8,20270522094727E-05;10 µA;
0,096435546875;18,0541329544177;-1,77276611328125E-05;0,09625244140625;1;429;0,000143168404370117;-8,20270522094727E-05;10 µA;
0,086669921875;18,1517329541713;-1,6705322265625E-05;0,086517333984375;1;433;0,000143168404370117;-8,20270522094727E-05;10 µA;
0,076904296875;18,2493329539249;-1,578369140625E-05;0,0767822265625;1;437;0,000143168404370117;-8,20270522094727E-05;10 µA;
0,067138671875;18,3469329536784;-1,49688720703125E-05;0,0670166015625;1;441;0,000143168404370117;-8,20270522094727E-05;10 µA;
0,057373046875;18,444532953432;-1,4251708984375E-05;0,05718994140625;1;445;0,000143168404370117;-8,20270522094727E-05;10 µA;
0,047607421875;18,5421329531856;-1,36322021484375E-05;0,04755859375;1;449;0,000143168404370117;-8,20270522094727E-05;10 µA;
0,037841796875;18,6397329529392;-1,3116455078125E-05;0,0378204345703125;1;453;0,000143168404370117;-8,20270522094727E-05;10 µA;
0,028076171875;18,7373329526928;-1,26861572265625E-05;0,0280181884765625;1;457;0,000143168404370117;-8,20270522094727E-05;10 µA;
0,018310546875;18,8349329524464;-1,23382568359375E-05;0,018243408203125;1;461;0,000143168404370117;-8,20270522094727E-05;10 µA;
0,008544921875;18,9325329521999;-1,20635986328125E-05;0,00844421386718749;1;465;0,000143168404370117;-8,20270522094727E-05;10 µA;
-0,001220703125;19,0301329519535;-1,185302734375E-05;-0,0012969970703125;1;469;0,000143168404370117;-8,20270522094727E-05;10 µA;
-0,010986328125;19,1277329517071;-1,1700439453125E-05;-0,0110870361328125;1;473;0,000143168404370117;-8,20270522094727E-05;10 µA;
-0,020751953125;19,2253329514607;-1,16119384765625E-05;-0,0208831787109375;1;477;0,000143168404370117;-8,20270522094727E-05;10 µA;
-0,030517578125;19,3229329512143;-1,1590576171875E-05;-0,030621337890625;1;481;0,000143168404370117;-8,20270522094727E-05;10 µA;
-0,040283203125;19,4205329509679;-1,1639404296875E-05;-0,0404266357421875;1;485;0,000143168404370117;-8,20270522094727E-05;10 µA;
-0,050048828125;19,5181329507215;-1,17431640625E-05;-0,050323486328125;1;489;0,000143168404370117;-8,20270522094727E-05;10 µA;
-0,059814453125;19,615732950475;-1,18988037109375E-05;-0,060089111328125;1;493;0,000143168404370117;-8,20270522094727E-05;10 µA;
-0,069580078125;19,7133329502286;-1,209716796875E-05;-0,06988525390625;1;497;0,000143168404370117;-8,20270522094727E-05;10 µA;
-0,079345703125;19,8109329499822;-1,23260498046875E-05;-0,07965087890625;1;501;0,000143168404370117;-8,20270522094727E-05;10 µA;
-0,089111328125;19,9085329497358;-1,25946044921875E-05;-0,0894775390625;1;505;0,000143168404370117;-8,20270522094727E-05;10 µA;
-0,098876953125;20,0061329494894;-1,28936767578125E-05;-0,09918212890625;1;509;0,000143168404370117;-8,20270522094727E-05;10 µA;
-0,108642578125;20,103732949243;-1,32080078125E-05;-0,10906982421875;1;513;0,000143168404370117;-8,20270522094727E-05;10 µA;
-0,118408203125;20,2013329489965;-1,34979248046875E-05;-0,118804931640625;1;517;0,000143168404370117;-8,20270522094727E-05;10 µA;
-0,128173828125;20,2989329487501;-1,375732421875E-05;-0,128631591796875;1;521;0,000143168404370117;-8,20270522094727E-05;10 µA;
-0,137939453125;20,3965329485037;-1,395263671875E-05;-0,13836669921875;1;525;0,000143168404370117;-8,20270522094727E-05;10 µA;
-0,147705078125;20,4941329482573;-1,40594482421875E-05;-0,148101806640625;1;529;0,000143168404370117;-8,20270522094727E-05;10 µA;
-0,157470703125;20,5917329480109;-1,40716552734375E-05;-0,15789794921875;1;533;0,000143168404370117;-8,20270522094727E-05;10 µA;
-0,167236328125;20,6893329477645;-1,39923095703125E-05;-0,1676025390625;1;537;0,000143168404370117;-8,20270522094727E-05;10 µA;
-0,177001953125;20,786932947518;-1,3818359375E-05;-0,177520751953125;1;541;0,000143168404370117;-8,20270522094727E-05;10 µA;
-0,186767578125;20,8845329472716;-1,3568115234375E-05;-0,187225341796875;1;545;0,000143168404370117;-8,20270522094727E-05;10 µA;
-0,196533203125;20,9821329470252;-1,324462890625E-05;-0,196990966796875;1;549;0,000143168404370117;-8,20270522094727E-05;10 µA;
-0,196533203125;21,0797329467788;-1,22589111328125E-05;-0,19696044921875;1;553;0,000143168404370117;-8,20270522094727E-05;10 µA;
-0,186767578125;21,1773329465324;-1,09619140625E-05;-0,187225341796875;1;557;0,000143168404370117;-8,20270522094727E-05;10 µA;
-0,177001953125;21,274932946286;-9,991455078125E-06;-0,1773681640625;1;561;0,000143168404370117;-8,20270522094727E-05;10 µA;
-0,167236328125;21,3725329460395;-9,2437744140625E-06;-0,167694091796875;1;565;0,000143168404370117;-8,20270522094727E-05;10 µA;
-0,157470703125;21,4701329457931;-8,6578369140625E-06;-0,157867431640625;1;569;0,000143168404370117;-8,20270522094727E-05;10 µA;
-0,147705078125;21,5677329455467;-8,1787109375E-06;-0,14813232421875;1;573;0,000143168404370117;-8,20270522094727E-05;10 µA;
-0,137939453125;21,6653329453003;-7,769775390625E-06;-0,138275146484375;1;577;0,000143168404370117;-8,20270522094727E-05;10 µA;
-0,128173828125;21,7629329450539;-7,415771484375E-06;-0,12847900390625;1;581;0,000143168404370117;-8,20270522094727E-05;10 µA;
-0,118408203125;21,8605329448075;-7,098388671875E-06;-0,11871337890625;1;585;0,000143168404370117;-8,20270522094727E-05;10 µA;
-0,108642578125;21,958132944561;-6,8145751953125E-06;-0,108978271484375;1;589;0,000143168404370117;-8,20270522094727E-05;10 µA;
-0,098876953125;22,0557329443146;-6,5704345703125E-06;-0,099212646484375;1;593;0,000143168404370117;-8,20270522094727E-05;10 µA;
-0,089111328125;22,1533329440682;-6,341552734375E-06;-0,089385986328125;1;597;0,000143168404370117;-8,20270522094727E-05;10 µA;
-0,079345703125;22,2509329438218;-6,1309814453125E-06;-0,079620361328125;1;601;0,000143168404370117;-8,20270522094727E-05;10 µA;
-0,069580078125;22,3485329435754;-5,92041015625E-06;-0,069854736328125;1;605;0,000143168404370117;-8,20270522094727E-05;10 µA;
-0,059814453125;22,446132943329;-5,7098388671875E-06;-0,060089111328125;1;609;0,000143168404370117;-8,20270522094727E-05;10 µA;
-0,050048828125;22,5437329430825;-5,499267578125E-06;-0,050323486328125;1;613;0,000143168404370117;-8,20270522094727E-05;10 µA;
-0,040283203125;22,6413329428361;-5,303955078125E-06;-0,040411376953125;1;617;0,000143168404370117;-8,20270522094727E-05;10 µA;
-0,030517578125;22,7389329425897;-5,1116943359375E-06;-0,0306488037109375;1;621;0,000143168404370117;-8,20270522094727E-05;10 µA;
-0,020751953125;22,8365329423433;-4,925537109375E-06;-0,0208282470703125;1;625;0,000143168404370117;-8,20270522094727E-05;10 µA;
-0,010986328125;22,9341329420969;-4,74700927734375E-06;-0,011138916015625;1;629;0,000143168404370117;-8,20270522094727E-05;1 µA;
-0,001220703125;23,0317329418505;-4,5648193359375E-06;-0,0013153076171875;1;633;0,000143168404370117;-8,20270522094727E-05;1 µA;
0,008544921875;23,129332941604;-4,3798828125E-06;0,0084869384765625;1;637;0,000143168404370117;-8,20270522094727E-05;1 µA;
0,018310546875;23,2269329413576;-4,19464111328125E-06;0,0182464599609375;1;641;0,000143168404370117;-8,20270522094727E-05;1 µA;
0,028076171875;23,3245329411112;-4,01153564453125E-06;0,0279998779296875;1;645;0,000143168404370117;-8,20270522094727E-05;1 µA;
0,037841796875;23,4221329408648;-3,8360595703125E-06;0,03778076171875;1;649;0,000143168404370117;-8,20270522094727E-05;1 µA;
0,047607421875;23,5197329406184;-3,65142822265625E-06;0,047576904296875;1;653;0,000143168404370117;-8,20270522094727E-05;1 µA;
0,057373046875;23,617332940372;-3,44451904296875E-06;0,05706787109375;1;657;0,000143168404370117;-8,20270522094727E-05;1 µA;
0,067138671875;23,7149329401255;-3,20068359375E-06;0,06689453125;1;661;0,000143168404370117;-8,20270522094727E-05;1 µA;
0,076904296875;23,8125329398791;-2,9071044921875E-06;0,076629638671875;1;665;0,000143168404370117;-8,20270522094727E-05;1 µA;
0,086669921875;23,9101329396327;-2,54730224609375E-06;0,086456298828125;1;669;0,000143168404370117;-8,20270522094727E-05;1 µA;
0,096435546875;24,0077329393863;-2,1051025390625E-06;0,0963134765625;1;673;0,000143168404370117;-8,20270522094727E-05;1 µA;
0,106201171875;24,1053329391399;-1,5362548828125E-06;0,10614013671875;1;677;0,000143168404370117;-8,20270522094727E-05;1 µA;
0,115966796875;24,2029329388935;-7,8125E-07;0,11602783203125;1;681;0,000143168404370117;-8,20270522094727E-05;1 µA;
0,125732421875;24,3005329386471;2,2552490234375E-07;0,12579345703125;1;685;0,000143168404370117;-8,20270522094727E-05;1 µA;
0,135498046875;24,3981329384006;1,5478515625E-06;0,13568115234375;1;689;0,000143168404370117;-8,20270522094727E-05;1 µA;
0,145263671875;24,4957329381542;3,23486328125E-06;0,14556884765625;1;693;0,000143168404370117;-8,20270522094727E-05;1 µA;
0,155029296875;24,5933329379078;5,33355712890625E-06;0,155487060546875;1;697;0,000143168404370117;-8,20270522094727E-05;1 µA;
0,164794921875;24,6909329376614;7,861328125E-06;0,1650390625;1;701;0,000143168404370117;-8,20270522094727E-05;10 µA;
0,174560546875;24,788532937415;1,0784912109375E-05;0,174713134765625;1;705;0,000143168404370117;-8,20270522094727E-05;10 µA;
0,184326171875;24,8861329371686;1,39923095703125E-05;0,18450927734375;1;709;0,000143168404370117;-8,20270522094727E-05;10 µA;
0,194091796875;24,9837329369221;1,73065185546875E-05;0,19427490234375;1;713;0,000143168404370117;-8,20270522094727E-05;10 µA;
0,203857421875;25,0813329366757;2,047119140625E-05;0,204132080078125;1;717;0,000143168404370117;-8,20270522094727E-05;10 µA;
0,213623046875;25,1789329364293;2,3199462890625E-05;0,213958740234375;1;721;0,000143168404370117;-8,20270522094727E-05;10 µA;
0,223388671875;25,2765329361829;2,52685546875E-05;0,223785400390625;1;725;0,000143168404370117;-8,20270522094727E-05;10 µA;
0,233154296875;25,3741329359365;2,657470703125E-05;0,233612060546875;1;729;0,000143168404370117;-8,20270522094727E-05;10 µA;
0,242919921875;25,4717329356901;2,71209716796875E-05;0,24334716796875;1;733;0,000143168404370117;-8,20270522094727E-05;10 µA;
0,252685546875;25,5693329354436;2,69989013671875E-05;0,253143310546875;1;737;0,000143168404370117;-8,20270522094727E-05;10 µA;
0,262451171875;25,6669329351972;2,63824462890625E-05;0,262939453125;2;741;0,000113890003088379;-8,3621532788086E-05;10 µA;
0,272216796875;25,7645329349508;2,5439453125E-05;0,272613525390625;2;745;0,000113890003088379;-8,3621532788086E-05;10 µA;
0,281982421875;25,8621329347044;2,431640625E-05;0,282257080078125;2;749;0,000113890003088379;-8,3621532788086E-05;10 µA;
0,291748046875;25,959732934458;2,31475830078125E-05;0,292205810546875;2;753;0,000113890003088379;-8,3621532788086E-05;10 µA;
0,301513671875;26,0573329342116;2,19970703125E-05;0,30194091796875;2;757;0,000113890003088379;-8,3621532788086E-05;10 µA;
0,311279296875;26,1549329339651;2,0916748046875E-05;0,311676025390625;2;761;0,000113890003088379;-8,3621532788086E-05;10 µA;
0,321044921875;26,2525329337187;1,9921875E-05;0,32147216796875;2;765;0,000113890003088379;-8,3621532788086E-05;10 µA;
0,330810546875;26,3501329334723;1,9024658203125E-05;0,3311767578125;2;769;0,000113890003088379;-8,3621532788086E-05;10 µA;
0,340576171875;26,4477329332259;1,82220458984375E-05;0,341064453125;2;773;0,000113890003088379;-8,3621532788086E-05;10 µA;
0,350341796875;26,5453329329795;1,75018310546875E-05;0,35076904296875;2;777;0,000113890003088379;-8,3621532788086E-05;10 µA;
0,360107421875;26,6429329327331;1,6845703125E-05;0,360565185546875;2;781;0,000113890003088379;-8,3621532788086E-05;10 µA;
0,369873046875;26,7405329324866;1,62506103515625E-05;0,370391845703125;2;785;0,000113890003088379;-8,3621532788086E-05;10 µA;
0,379638671875;26,8381329322402;1,571044921875E-05;0,38018798828125;2;789;0,000113890003088379;-8,3621532788086E-05;10 µA;
0,389404296875;26,9357329319938;1,52191162109375E-05;0,389862060546875;2;793;0,000113890003088379;-8,3621532788086E-05;10 µA;
0,399169921875;27,0333329317474;1,4776611328125E-05;0,39971923828125;2;797;0,000113890003088379;-8,3621532788086E-05;10 µA;
0,408935546875;27,130932931501;1,43798828125E-05;0,40948486328125;2;801;0,000113890003088379;-8,3621532788086E-05;10 µA;
0,418701171875;27,2285329312546;1,4013671875E-05;0,419189453125;2;805;0,000113890003088379;-8,3621532788086E-05;10 µA;
0,428466796875;27,3261329310081;1,3671875E-05;0,42901611328125;2;809;0,000113890003088379;-8,3621532788086E-05;10 µA;
0,438232421875;27,4237329307617;1,33514404296875E-05;0,438812255859375;2;813;0,000113890003088379;-8,3621532788086E-05;10 µA;
0,447998046875;27,5213329305153;1,3055419921875E-05;0,44854736328125;2;817;0,000113890003088379;-8,3621532788086E-05;10 µA;
0,457763671875;27,6189329302689;1,27838134765625E-05;0,4583740234375;2;821;0,000113890003088379;-8,3621532788086E-05;10 µA;
0,467529296875;27,7165329300225;1,25335693359375E-05;0,468109130859375;2;825;0,000113890003088379;-8,3621532788086E-05;10 µA;
0,477294921875;27,8141329297761;1,23046875E-05;0,477874755859375;2;829;0,000113890003088379;-8,3621532788086E-05;10 µA;
0,487060546875;27,9117329295296;1,20941162109375E-05;0,487640380859375;2;833;0,000113890003088379;-8,3621532788086E-05;10 µA;
0,496826171875;28,0093329292832;1,18927001953125E-05;0,4974365234375;2;837;0,000113890003088379;-8,3621532788086E-05;10 µA;
0,506591796875;28,1069329290368;1,16973876953125E-05;0,5072021484375;2;841;0,000113890003088379;-8,3621532788086E-05;10 µA;
0,516357421875;28,2045329287904;1,15142822265625E-05;0,5169677734375;2;845;0,000113890003088379;-8,3621532788086E-05;10 µA;
0,526123046875;28,302132928544;1,13494873046875E-05;0,526763916015625;2;849;0,000113890003088379;-8,3621532788086E-05;10 µA;
0,535888671875;28,3997329282976;1,1199951171875E-05;0,536529541015625;2;853;0,000113890003088379;-8,3621532788086E-05;10 µA;
0,545654296875;28,4973329280512;1,10595703125E-05;0,546295166015625;2;857;0,000113890003088379;-8,3621532788086E-05;10 µA;
0,555419921875;28,5949329278047;1,09344482421875E-05;0,55609130859375;2;861;0,000113890003088379;-8,3621532788086E-05;10 µA;
0,565185546875;28,6925329275583;1,0809326171875E-05;0,565826416015625;2;865;0,000113890003088379;-8,3621532788086E-05;10 µA;
0,574951171875;28,7901329273119;1,06903076171875E-05;0,575653076171875;2;869;0,000113890003088379;-8,3621532788086E-05;10 µA;
0,584716796875;28,8877329270655;1,05804443359375E-05;0,58538818359375;2;873;0,000113890003088379;-8,3621532788086E-05;10 µA;
0,594482421875;28,9853329268191;1,048583984375E-05;0,59515380859375;2;877;0,000113890003088379;-8,3621532788086E-05;10 µA;
0,604248046875;29,0829329265727;1,04034423828125E-05;0,605010986328125;2;881;0,000113890003088379;-8,3621532788086E-05;10 µA;
0,614013671875;29,1805329263262;1,03363037109375E-05;0,614715576171875;2;885;0,000113890003088379;-8,3621532788086E-05;10 µA;
0,623779296875;29,2781329260798;1,02813720703125E-05;0,62445068359375;2;889;0,000113890003088379;-8,3621532788086E-05;10 µA;
0,633544921875;29,3757329258334;1,0223388671875E-05;0,634307861328125;2;893;0,000113890003088379;-8,3621532788086E-05;10 µA;
0,643310546875;29,473332925587;1,01776123046875E-05;0,64410400390625;2;897;0,000113890003088379;-8,3621532788086E-05;10 µA;
0,653076171875;29,5709329253406;1,01409912109375E-05;0,653839111328125;2;901;0,000113890003088379;-8,3621532788086E-05;10 µA;
0,662841796875;29,6685329250942;1,01226806640625E-05;0,663665771484375;2;905;0,000113890003088379;-8,3621532788086E-05;10 µA;
0,672607421875;29,7661329248477;1,01287841796875E-05;0,673370361328125;2;909;0,000113890003088379;-8,3621532788086E-05;10 µA;
0,682373046875;29,8637329246013;1,01470947265625E-05;0,683135986328125;2;913;0,000113890003088379;-8,3621532788086E-05;10 µA;
0,692138671875;29,9613329243549;1,01715087890625E-05;0,693023681640625;2;917;0,000113890003088379;-8,3621532788086E-05;10 µA;
0,701904296875;30,0589329241085;1,0211181640625E-05;0,702728271484375;2;921;0,000113890003088379;-8,3621532788086E-05;10 µA;
0,692138671875;30,1565329238621;9,5611572265625E-06;0,6929931640625;2;925;0,000113890003088379;-8,3621532788086E-05;10 µA;
0,682373046875;30,2541329236157;9,1949462890625E-06;0,68316650390625;2;929;0,000113890003088379;-8,3621532788086E-05;10 µA;
0,672607421875;30,3517329233692;8,9263916015625E-06;0,673370361328125;2;933;0,000113890003088379;-8,3621532788086E-05;10 µA;
0,662841796875;30,4493329231228;8,7249755859375E-06;0,66363525390625;2;937;0,000113890003088379;-8,3621532788086E-05;10 µA;
0,653076171875;30,5469329228764;8,563232421875E-06;0,65386962890625;2;941;0,000113890003088379;-8,3621532788086E-05;10 µA;
0,643310546875;30,64453292263;8,4197998046875E-06;0,64410400390625;2;945;0,000113890003088379;-8,3621532788086E-05;10 µA;
0,633544921875;30,7421329223836;8,28857421875E-06;0,63421630859375;2;949;0,000113890003088379;-8,3621532788086E-05;10 µA;
0,623779296875;30,8397329221372;8,16650390625E-06;0,624481201171875;2;953;0,000113890003088379;-8,3621532788086E-05;10 µA;
0,614013671875;30,9373329218907;8,0596923828125E-06;0,61474609375;2;957;0,000113890003088379;-8,3621532788086E-05;10 µA;
0,604248046875;31,0349329216443;7,9681396484375E-06;0,6048583984375;2;961;0,000113890003088379;-8,3621532788086E-05;10 µA;
0,594482421875;31,1325329213979;7,891845703125E-06;0,595123291015625;2;965;0,000113890003088379;-8,3621532788086E-05;10 µA;
0,584716796875;31,2301329211515;7,818603515625E-06;0,58538818359375;2;969;0,000113890003088379;-8,3621532788086E-05;10 µA;
0,574951171875;31,3277329209051;7,7423095703125E-06;0,57562255859375;2;973;0,000113890003088379;-8,3621532788086E-05;10 µA;
0,565185546875;31,4253329206587;7,666015625E-06;0,5657958984375;2;977;0,000113890003088379;-8,3621532788086E-05;10 µA;
0,555419921875;31,5229329204122;7,5958251953125E-06;0,556060791015625;2;981;0,000113890003088379;-8,3621532788086E-05;10 µA;
0,545654296875;31,6205329201658;7,5286865234375E-06;0,5462646484375;2;985;0,000113890003088379;-8,3621532788086E-05;10 µA;
0,535888671875;31,7181329199194;7,470703125E-06;0,536529541015625;2;989;0,000113890003088379;-8,3621532788086E-05;10 µA;
0,526123046875;31,815732919673;7,415771484375E-06;0,5267333984375;2;993;0,000113890003088379;-8,3621532788086E-05;10 µA;
0,516357421875;31,9133329194266;7,366943359375E-06;0,516937255859375;2;997;0,000113890003088379;-8,3621532788086E-05;10 µA;
0,506591796875;32,0109329191802;7,3089599609375E-06;0,5072021484375;2;1001;0,000113890003088379;-8,3621532788086E-05;10 µA;
0,496826171875;32,1085329189337;7,2509765625E-06;0,497406005859375;2;1005;0,000113890003088379;-8,3621532788086E-05;10 µA;
0,487060546875;32,2061329186873;7,18994140625E-06;0,487640380859375;2;1009;0,000113890003088379;-8,3621532788086E-05;10 µA;
0,477294921875;32,3037329184409;7,1380615234375E-06;0,47784423828125;2;1013;0,000113890003088379;-8,3621532788086E-05;10 µA;
0,467529296875;32,4013329181945;7,086181640625E-06;0,46807861328125;2;1017;0,000113890003088379;-8,3621532788086E-05;10 µA;
0,457763671875;32,4989329179481;7,0465087890625E-06;0,458251953125;2;1021;0,000113890003088379;-8,3621532788086E-05;10 µA;
0,447998046875;32,5965329177017;6,99462890625E-06;0,448577880859375;2;1025;0,000113890003088379;-8,3621532788086E-05;10 µA;
0,438232421875;32,6941329174552;6,94580078125E-06;0,438751220703125;2;1029;0,000113890003088379;-8,3621532788086E-05;10 µA;
0,428466796875;32,7917329172088;6,884765625E-06;0,428924560546875;2;1033;0,000113890003088379;-8,3621532788086E-05;10 µA;
0,418701171875;32,8893329169624;6,8267822265625E-06;0,419189453125;2;1037;0,000113890003088379;-8,3621532788086E-05;10 µA;
0,408935546875;32,986932916716;6,7626953125E-06;0,40936279296875;2;1041;0,000113890003088379;-8,3621532788086E-05;10 µA;
0,399169921875;33,0845329164696;6,707763671875E-06;0,39971923828125;2;1045;0,000113890003088379;-8,3621532788086E-05;10 µA;
0,389404296875;33,1821329162232;6,65283203125E-06;0,389862060546875;2;1049;0,000113890003088379;-8,3621532788086E-05;10 µA;
0,379638671875;33,2797329159768;6,585693359375E-06;0,38006591796875;2;1053;0,000113890003088379;-8,3621532788086E-05;10 µA;
0,369873046875;33,3773329157303;6,50634765625E-06;0,370269775390625;2;1057;0,000113890003088379;-8,3621532788086E-05;10 µA;
0,360107421875;33,4749329154839;6,4056396484375E-06;0,36041259765625;2;1061;0,000113890003088379;-8,3621532788086E-05;10 µA;
0,350341796875;33,5725329152375;6,2896728515625E-06;0,350738525390625;2;1065;0,000113890003088379;-8,3621532788086E-05;10 µA;
0,340576171875;33,6701329149911;6,1553955078125E-06;0,3409423828125;2;1069;0,000113890003088379;-8,3621532788086E-05;10 µA;
0,330810546875;33,7677329147447;5,987548828125E-06;0,331207275390625;2;1073;0,000113890003088379;-8,3621532788086E-05;10 µA;
0,321044921875;33,8653329144983;5,7708740234375E-06;0,32135009765625;2;1077;0,000113890003088379;-8,3621532788086E-05;10 µA;
0,311279296875;33,9629329142518;5,4779052734375E-06;0,31158447265625;2;1081;0,000113890003088379;-8,3621532788086E-05;10 µA;
0,301513671875;34,0605329140054;5,078125E-06;0,30181884765625;2;1085;0,000113890003088379;-8,3621532788086E-05;10 µA;
0,291748046875;34,158132913759;4,54071044921875E-06;0,292022705078125;2;1089;0,000113890003088379;-8,3621532788086E-05;10 µA;
0,281982421875;34,2557329135126;3,80645751953125E-06;0,282470703125;2;1093;0,000113890003088379;-8,3621532788086E-05;1 µA;
0,272216796875;34,3533329132662;2,8424072265625E-06;0,27264404296875;2;1097;0,000113890003088379;-8,3621532788086E-05;1 µA;
0,262451171875;34,4509329130198;1,5728759765625E-06;0,2628173828125;2;1101;0,000113890003088379;-8,3621532788086E-05;1 µA;
0,252685546875;34,5485329127733;-8,9569091796875E-08;0,252899169921875;2;1105;0,000113890003088379;-8,3621532788086E-05;1 µA;
0,242919921875;34,6461329125269;-2,191162109375E-06;0,242889404296875;2;1109;0,000113890003088379;-8,3621532788086E-05;1 µA;
0,233154296875;34,7437329122805;-4,7503662109375E-06;0,233001708984375;2;1113;0,000113890003088379;-8,3621532788086E-05;1 µA;
0,223388671875;34,8413329120341;-7,6812744140625E-06;0,22344970703125;2;1117;0,000113890003088379;-8,3621532788086E-05;10 µA;
0,213623046875;34,9389329117877;-1,08795166015625E-05;0,2137451171875;2;1121;0,000113890003088379;-8,3621532788086E-05;10 µA;
0,203857421875;35,0365329115413;-1,414794921875E-05;0,203887939453125;2;1125;0,000113890003088379;-8,3621532788086E-05;10 µA;
0,194091796875;35,1341329112948;-1,72515869140625E-05;0,194122314453125;2;1129;0,000113890003088379;-8,3621532788086E-05;10 µA;
0,184326171875;35,2317329110484;-1,99462890625E-05;0,184234619140625;2;1133;0,000113890003088379;-8,3621532788086E-05;10 µA;
0,174560546875;35,329332910802;-2,20184326171875E-05;0,17449951171875;2;1137;0,000113890003088379;-8,3621532788086E-05;10 µA;
0,164794921875;35,4269329105556;-2,33154296875E-05;0,16473388671875;2;1141;0,000113890003088379;-8,3621532788086E-05;10 µA;
0,155029296875;35,5245329103092;-2,38250732421875E-05;0,15496826171875;2;1145;0,000113890003088379;-8,3621532788086E-05;10 µA;
0,145263671875;35,6221329100628;-2,3651123046875E-05;0,1451416015625;2;1149;0,000113890003088379;-8,3621532788086E-05;10 µA;
0,135498046875;35,7197329098163;-2,2979736328125E-05;0,135406494140625;2;1153;0,000113890003088379;-8,3621532788086E-05;10 µA;
0,125732421875;35,8173329095699;-2,19879150390625E-05;0,125640869140625;2;1157;0,000113890003088379;-8,3621532788086E-05;10 µA;
0,115966796875;35,9149329093235;-2,08526611328125E-05;0,115814208984375;2;1161;0,000113890003088379;-8,3621532788086E-05;10 µA;
0,106201171875;36,0125329090771;-1,96807861328125E-05;0,10614013671875;2;1165;0,000113890003088379;-8,3621532788086E-05;10 µA;
0,096435546875;36,1101329088307;-1,8560791015625E-05;0,09625244140625;2;1169;0,000113890003088379;-8,3621532788086E-05;10 µA;
0,086669921875;36,2077329085843;-1,75201416015625E-05;0,08648681640625;2;1173;0,000113890003088379;-8,3621532788086E-05;10 µA;
0,076904296875;36,3053329083378;-1,6583251953125E-05;0,0767822265625;2;1177;0,000113890003088379;-8,3621532788086E-05;10 µA;
0,067138671875;36,4029329080914;-1,57562255859375E-05;0,06695556640625;2;1181;0,000113890003088379;-8,3621532788086E-05;10 µA;
0,057373046875;36,500532907845;-1,5020751953125E-05;0,05718994140625;2;1185;0,000113890003088379;-8,3621532788086E-05;10 µA;
0,047607421875;36,5981329075986;-1,43798828125E-05;0,04757080078125;2;1189;0,000113890003088379;-8,3621532788086E-05;10 µA;
0,037841796875;36,6957329073522;-1,38458251953125E-05;0,0378082275390625;2;1193;0,000113890003088379;-8,3621532788086E-05;10 µA;
0,028076171875;36,7933329071058;-1,3385009765625E-05;0,0280029296875;2;1197;0,000113890003088379;-8,3621532788086E-05;10 µA;
0,018310546875;36,8909329068593;-1,30126953125E-05;0,018255615234375;2;1201;0,000113890003088379;-8,3621532788086E-05;10 µA;
0,008544921875;36,9885329066129;-1,26953125E-05;0,00848388671875;2;1205;0,000113890003088379;-8,3621532788086E-05;10 µA;
-0,001220703125;37,0861329063665;-1,243896484375E-05;-0,0013427734375;2;1209;0,000113890003088379;-8,3621532788086E-05;10 µA;
-0,010986328125;37,1837329061201;-1,22283935546875E-05;-0,0110870361328125;2;1213;0,000113890003088379;-8,3621532788086E-05;10 µA;
-0,020751953125;37,2813329058737;-1,2066650390625E-05;-0,0208831787109375;2;1217;0,000113890003088379;-8,3621532788086E-05;10 µA;
-0,030517578125;37,3789329056273;-1,1962890625E-05;-0,0306427001953125;2;1221;0,000113890003088379;-8,3621532788086E-05;10 µA;
-0,040283203125;37,4765329053809;-1,19110107421875E-05;-0,0404327392578125;2;1225;0,000113890003088379;-8,3621532788086E-05;10 µA;
-0,050048828125;37,5741329051344;-1,18988037109375E-05;-0,05035400390625;2;1229;0,000113890003088379;-8,3621532788086E-05;10 µA;
-0,059814453125;37,671732904888;-1,1920166015625E-05;-0,06005859375;2;1233;0,000113890003088379;-8,3621532788086E-05;10 µA;
-0,069580078125;37,7693329046416;-1,197509765625E-05;-0,0699462890625;2;1237;0,000113890003088379;-8,3621532788086E-05;10 µA;
-0,079345703125;37,8669329043952;-1,204833984375E-05;-0,079620361328125;2;1241;0,000113890003088379;-8,3621532788086E-05;10 µA;
-0,089111328125;37,9645329041488;-1,214599609375E-05;-0,08941650390625;2;1245;0,000113890003088379;-8,3621532788086E-05;10 µA;
-0,098876953125;38,0621329039024;-1,22711181640625E-05;-0,09912109375;2;1249;0,000113890003088379;-8,3621532788086E-05;10 µA;
-0,108642578125;38,1597329036559;-1,241455078125E-05;-0,1090087890625;2;1253;0,000113890003088379;-8,3621532788086E-05;10 µA;
-0,118408203125;38,2573329034095;-1,2554931640625E-05;-0,1187744140625;2;1257;0,000113890003088379;-8,3621532788086E-05;10 µA;
-0,128173828125;38,3549329031631;-1,26739501953125E-05;-0,128570556640625;2;1261;0,000113890003088379;-8,3621532788086E-05;10 µA;
-0,137939453125;38,4525329029167;-1,27655029296875E-05;-0,1383056640625;2;1265;0,000113890003088379;-8,3621532788086E-05;10 µA;
-0,147705078125;38,5501329026703;-1,28173828125E-05;-0,148101806640625;2;1269;0,000113890003088379;-8,3621532788086E-05;10 µA;
-0,157470703125;38,6477329024239;-1,2823486328125E-05;-0,157806396484375;2;1273;0,000113890003088379;-8,3621532788086E-05;10 µA;
-0,167236328125;38,7453329021774;-1,27777099609375E-05;-0,16766357421875;2;1277;0,000113890003088379;-8,3621532788086E-05;10 µA;
-0,177001953125;38,842932901931;-1,2689208984375E-05;-0,177398681640625;2;1281;0,000113890003088379;-8,3621532788086E-05;10 µA;
-0,186767578125;38,9405329016846;-1,25457763671875E-05;-0,187255859375;2;1285;0,000113890003088379;-8,3621532788086E-05;10 µA;
-0,196533203125;39,0381329014382;-1,23565673828125E-05;-0,196990966796875;2;1289;0,000113890003088379;-8,3621532788086E-05;10 µA;
-0,196533203125;39,1357329011918;-1,16180419921875E-05;-0,197021484375;2;1293;0,000113890003088379;-8,3621532788086E-05;10 µA;
-0,186767578125;39,2333329009454;-1,05804443359375E-05;-0,187164306640625;2;1297;0,000113890003088379;-8,3621532788086E-05;10 µA;
-0,177001953125;39,3309329006989;-9,7686767578125E-06;-0,177398681640625;2;1301;0,000113890003088379;-8,3621532788086E-05;10 µA;
-0,167236328125;39,4285329004525;-9,130859375E-06;-0,167694091796875;2;1305;0,000113890003088379;-8,3621532788086E-05;10 µA;
-0,157470703125;39,5261329002061;-8,612060546875E-06;-0,15789794921875;2;1309;0,000113890003088379;-8,3621532788086E-05;10 µA;
-0,147705078125;39,6237328999597;-8,1817626953125E-06;-0,1480712890625;2;1313;0,000113890003088379;-8,3621532788086E-05;10 µA;
-0,137939453125;39,7213328997133;-7,8125E-06;-0,138275146484375;2;1317;0,000113890003088379;-8,3621532788086E-05;10 µA;
-0,128173828125;39,8189328994669;-7,4798583984375E-06;-0,128570556640625;2;1321;0,000113890003088379;-8,3621532788086E-05;10 µA;
-0,118408203125;39,9165328992204;-7,183837890625E-06;-0,11871337890625;2;1325;0,000113890003088379;-8,3621532788086E-05;10 µA;
-0,108642578125;40,014132898974;-6,92138671875E-06;-0,1090087890625;2;1329;0,000113890003088379;-8,3621532788086E-05;10 µA;
-0,098876953125;40,1117328987276;-6,683349609375E-06;-0,099212646484375;2;1333;0,000113890003088379;-8,3621532788086E-05;10 µA;
-0,089111328125;40,2093328984812;-6,4727783203125E-06;-0,08941650390625;2;1337;0,000113890003088379;-8,3621532788086E-05;10 µA;
-0,079345703125;40,3069328982348;-6,2744140625E-06;-0,07965087890625;2;1341;0,000113890003088379;-8,3621532788086E-05;10 µA;
-0,069580078125;40,4045328979884;-6,0821533203125E-06;-0,06982421875;2;1345;0,000113890003088379;-8,3621532788086E-05;10 µA;
-0,059814453125;40,5021328977419;-5,889892578125E-06;-0,060089111328125;2;1349;0,000113890003088379;-8,3621532788086E-05;10 µA;
-0,050048828125;40,5997328974955;-5,70068359375E-06;-0,050323486328125;2;1353;0,000113890003088379;-8,3621532788086E-05;10 µA;
-0,040283203125;40,6973328972491;-5,517578125E-06;-0,0404296875;2;1357;0,000113890003088379;-8,3621532788086E-05;10 µA;
-0,030517578125;40,7949328970027;-5,3466796875E-06;-0,030633544921875;2;1361;0,000113890003088379;-8,3621532788086E-05;10 µA;
-0,020751953125;40,8925328967563;-5,181884765625E-06;-0,0208587646484375;2;1365;0,000113890003088379;-8,3621532788086E-05;10 µA;
-0,010986328125;40,9901328965099;-5,0201416015625E-06;-0,0111114501953125;2;1369;0,000113890003088379;-8,3621532788086E-05;10 µA;
-0,001220703125;41,0877328962634;-4,8583984375E-06;-0,0013153076171875;2;1373;0,000113890003088379;-8,3621532788086E-05;10 µA;
0,008544921875;41,185332896017;-4,6893310546875E-06;0,00843505859375;2;1377;0,000113890003088379;-8,3621532788086E-05;1 µA;
0,018310546875;41,2829328957706;-4,52239990234375E-06;0,01826171875;2;1381;0,000113890003088379;-8,3621532788086E-05;1 µA;
0,028076171875;41,3805328955242;-4,351806640625E-06;0,02799072265625;2;1385;0,000113890003088379;-8,3621532788086E-05;1 µA;
0,037841796875;41,4781328952778;-4,17999267578125E-06;0,0377655029296875;2;1389;0,000113890003088379;-8,3621532788086E-05;1 µA;
0,047607421875;41,5757328950314;-4,00115966796875E-06;0,04749755859375;2;1393;0,000113890003088379;-8,3621532788086E-05;1 µA;
0,057373046875;41,6733328947849;-3,8079833984375E-06;0,057037353515625;2;1397;0,000113890003088379;-8,3621532788086E-05;1 µA;
0,067138671875;41,7709328945385;-3,57177734375E-06;0,066864013671875;2;1401;0,000113890003088379;-8,3621532788086E-05;1 µA;
0,076904296875;41,8685328942921;-3,2806396484375E-06;0,076629638671875;2;1405;0,000113890003088379;-8,3621532788086E-05;1 µA;
0,086669921875;41,9661328940457;-2,92388916015625E-06;0,08648681640625;2;1409;0,000113890003088379;-8,3621532788086E-05;1 µA;
0,096435546875;42,0637328937993;-2,48016357421875E-06;0,096282958984375;2;1413;0,000113890003088379;-8,3621532788086E-05;1 µA;
0,106201171875;42,1613328935529;-1,90338134765625E-06;0,106109619140625;2;1417;0,000113890003088379;-8,3621532788086E-05;1 µA;
0,115966796875;42,2589328933065;-1,14471435546875E-06;0,115966796875;2;1421;0,000113890003088379;-8,3621532788086E-05;1 µA;
0,125732421875;42,35653289306;-1,34613037109375E-07;0,12579345703125;2;1425;0,000113890003088379;-8,3621532788086E-05;1 µA;
0,135498046875;42,4541328928136;1,1981201171875E-06;0,135711669921875;2;1429;0,000113890003088379;-8,3621532788086E-05;1 µA;
0,145263671875;42,5517328925672;2,91748046875E-06;0,145477294921875;2;1433;0,000113890003088379;-8,3621532788086E-05;1 µA;
0,155029296875;42,6493328923208;5,05096435546875E-06;0,155517578125;2;1437;0,000113890003088379;-8,3621532788086E-05;1 µA;
0,164794921875;42,7469328920744;7,611083984375E-06;0,164947509765625;2;1441;0,000113890003088379;-8,3621532788086E-05;10 µA;
0,174560546875;42,844532891828;1,055908203125E-05;0,174774169921875;2;1445;0,000113890003088379;-8,3621532788086E-05;10 µA;
0,184326171875;42,9421328915815;1,380615234375E-05;0,184600830078125;2;1449;0,000113890003088379;-8,3621532788086E-05;10 µA;
0,194091796875;43,0397328913351;1,71417236328125E-05;0,19439697265625;2;1453;0,000113890003088379;-8,3621532788086E-05;10 µA;
0,203857421875;43,1373328910887;2,030029296875E-05;0,204132080078125;2;1457;0,000113890003088379;-8,3621532788086E-05;10 µA;
0,213623046875;43,2349328908423;2,3028564453125E-05;0,213958740234375;2;1461;0,000113890003088379;-8,3621532788086E-05;10 µA;
0,223388671875;43,3325328905959;2,5067138671875E-05;0,22381591796875;2;1465;0,000113890003088379;-8,3621532788086E-05;10 µA;
0,233154296875;43,4301328903495;2,6324462890625E-05;0,233551025390625;2;1469;0,000113890003088379;-8,3621532788086E-05;10 µA;
0,242919921875;43,527732890103;2,67913818359375E-05;0,243255615234375;2;1473;0,000113890003088379;-8,3621532788086E-05;10 µA;
0,252685546875;43,6253328898566;2,6605224609375E-05;0,2530517578125;2;1477;0,000113890003088379;-8,3621532788086E-05;10 µA;
0,260009765625;43,6985328896718;2,61627197265625E-05;0,260406494140625;2;1480;0,000113890003088379;-8,3621532788086E-05;10 µA;