File: Grupo 8 03-10-2023/FE3O4 - FTIR/FE3O4 - SECO1.txt
##TITLE=No Description
##DATA TYPE=INFRARED SPECTRUM
##XUNITS=1/CM
##YUNITS=%T
399,452061  	26,514635
402,325817  	27,398998
405,199573  	25,654301
408,073328  	27,324288
410,947084  	28,048712
413,820840  	27,904411
416,694596  	27,462953
419,568352  	28,770149
422,442108  	30,406255
425,315863  	31,072604
428,189619  	30,862102
431,063375  	31,233682
433,937131  	33,165664
436,810887  	33,138000
439,684643  	33,717624
442,558398  	34,712082
445,432154  	35,107588
448,305910  	35,397186
451,179666  	35,809981
454,053422  	37,083049
456,927178  	37,789920
459,800933  	37,890338
462,674689  	38,452830
465,548445  	39,524227
468,422201  	40,703212
471,295957  	40,890296
474,169713  	40,950689
477,043469  	41,849303
479,917224  	42,125587
482,790980  	43,063421
485,664736  	43,432864
488,538492  	44,009387
491,412248  	44,505528
494,286004  	44,626256
497,159759  	44,592228
500,033515  	45,426682
502,907271  	45,813796
505,781027  	46,078078
508,654783  	46,205621
511,528539  	46,835490
514,402294  	46,610724
517,276050  	46,729521
520,149806  	46,776129
523,023562  	47,397078
525,897318  	47,137077
528,771074  	47,273953
531,644829  	46,932129
534,518585  	47,508636
537,392341  	47,111341
540,266097  	47,147511
543,139853  	46,937849
546,013609  	46,878915
548,887364  	46,731082
551,761120  	46,663710
554,634876  	46,680233
557,508632  	46,870531
560,382388  	46,761420
563,256144  	46,785830
566,129899  	46,807464
569,003655  	47,249921
571,877411  	47,332906
574,751167  	47,320544
577,624923  	48,026420
580,498679  	48,032653
583,372434  	48,412634
586,246190  	48,969187
589,119946  	49,354689
591,993702  	49,756591
594,867458  	50,283823
597,741214  	50,822644
600,614969  	51,351394
603,488725  	51,957227
606,362481  	52,506078
609,236237  	53,049039
612,109993  	53,813409
614,983749  	54,297811
617,857504  	54,784395
620,731260  	55,318024
623,605016  	55,841920
626,478772  	56,163425
629,352528  	56,515611
632,226284  	56,959612
635,100039  	57,336264
637,973795  	57,978814
640,847551  	58,584772
643,721307  	59,074461
646,595063  	59,806709
649,468819  	60,325769
652,342574  	60,870854
655,216330  	61,524828
658,090086  	61,993769
660,963842  	62,501842
663,837598  	62,947986
666,711354  	63,180517
669,585109  	63,977571
672,458865  	64,335085
675,332621  	64,850537
678,206377  	65,279652
681,080133  	65,721991
683,953889  	66,061304
686,827644  	66,461203
689,701400  	66,740113
692,575156  	67,189086
695,448912  	67,537386
698,322668  	68,127310
701,196424  	68,722913
704,070179  	69,210994
706,943935  	69,759615
709,817691  	70,434595
712,691447  	70,997926
715,565203  	71,718516
718,438959  	72,362200
721,312714  	73,156758
724,186470  	73,877137
727,060226  	74,587917
729,933982  	75,230101
732,807738  	75,986979
735,681494  	76,850728
738,555249  	77,665101
741,429005  	78,318363
744,302761  	79,034699
747,176517  	79,571019
750,050273  	80,310722
752,924029  	80,851544
755,797784  	81,335926
758,671540  	81,810246
761,545296  	82,102965
764,419052  	82,363952
767,292808  	82,593141
770,166564  	82,813709
773,040319  	83,020415
775,914075  	83,183919
778,787831  	83,300614
781,661587  	83,304119
784,535343  	83,523532
787,409099  	83,518866
790,282854  	83,579830
793,156610  	83,721089
796,030366  	83,718874
798,904122  	83,732238
801,777878  	83,822826
804,651634  	83,852912
807,525389  	83,916324
810,399145  	83,950454
813,272901  	84,027451
816,146657  	84,082659
819,020413  	84,209897
821,894169  	84,233462
824,767924  	84,227454
827,641680  	84,353634
830,515436  	84,313735
833,389192  	84,365678
836,262948  	84,379251
839,136704  	84,320839
842,010459  	84,321301
844,884215  	84,281416
847,757971  	84,231848
850,631727  	84,266125
853,505483  	84,236826
856,379239  	84,205604
859,252994  	84,055515
862,126750  	84,040352
865,000506  	84,006921
867,874262  	83,912215
870,748018  	83,823375
873,621774  	83,839710
876,495529  	83,799577
879,369285  	83,796231
882,243041  	83,704861
885,116797  	83,649430
887,990553  	83,648365
890,864309  	83,617555
893,738064  	83,566184
896,611820  	83,497139
899,485576  	83,417309
902,359332  	83,391444
905,233088  	83,311121
908,106844  	83,312422
910,980599  	83,291104
913,854355  	83,304816
916,728111  	83,361805
919,601867  	83,371985
922,475623  	83,361538
925,349379  	83,410433
928,223134  	83,421674
931,096890  	83,434805
933,970646  	83,438759
936,844402  	83,506958
939,718158  	83,488954
942,591914  	83,494059
945,465670  	83,495736
948,339425  	83,546092
951,213181  	83,658457
954,086937  	83,730586
956,960693  	83,891570
959,834449  	83,935429
962,708205  	84,014811
965,581960  	84,023829
968,455716  	84,078442
971,329472  	84,180630
974,203228  	84,238918
977,076984  	84,308604
979,950740  	84,412456
982,824495  	84,610312
985,698251  	84,722258
988,572007  	84,950264
991,445763  	85,132245
994,319519  	85,399344
997,193275  	85,613827
1000,067030  	85,735176
1002,940786  	85,905106
1005,814542  	86,020837
1008,688298  	86,095647
1011,562054  	86,198747
1014,435810  	86,225204
1017,309565  	86,233919
1020,183321  	86,219197
1023,057077  	86,174524
1025,930833  	86,097163
1028,804589  	86,013565
1031,678345  	85,891486
1034,552100  	85,781190
1037,425856  	85,758096
1040,299612  	85,670485
1043,173368  	85,666243
1046,047124  	85,675980
1048,920880  	85,781793
1051,794635  	85,881975
1054,668391  	86,108290
1057,542147  	86,259741
1060,415903  	86,500804
1063,289659  	86,785740
1066,163415  	87,008624
1069,037170  	87,319578
1071,910926  	87,626660
1074,784682  	87,860375
1077,658438  	88,060196
1080,532194  	88,342490
1083,405950  	88,528678
1086,279705  	88,694510
1089,153461  	88,847254
1092,027217  	88,954721
1094,900973  	89,162669
1097,774729  	89,288982
1100,648485  	89,362996
1103,522240  	89,445719
1106,395996  	89,468996
1109,269752  	89,523691
1112,143508  	89,568364
1115,017264  	89,585314
1117,891020  	89,534930
1120,764775  	89,580760
1123,638531  	89,657402
1126,512287  	89,875191
1129,386043  	90,157431
1132,259799  	90,497399
1135,133555  	90,917401
1138,007310  	91,338324
1140,881066  	91,676782
1143,754822  	92,008499
1146,628578  	92,326085
1149,502334  	92,591303
1152,376090  	92,831515
1155,249845  	93,038675
1158,123601  	93,223658
1160,997357  	93,395758
1163,871113  	93,566596
1166,744869  	93,717040
1169,618625  	93,860362
1172,492380  	94,061587
1175,366136  	94,250708
1178,239892  	94,427069
1181,113648  	94,599667
1183,987404  	94,776047
1186,861160  	94,921155
1189,734915  	95,151302
1192,608671  	95,331353
1195,482427  	95,519533
1198,356183  	95,693678
1201,229939  	95,892488
1204,103695  	96,073337
1206,977450  	96,308463
1209,851206  	96,455880
1212,724962  	96,652747
1215,598718  	96,834843
1218,472474  	96,993046
1221,346230  	97,181635
1224,219985  	97,298063
1227,093741  	97,438947
1229,967497  	97,615091
1232,841253  	97,722998
1235,715009  	97,850691
1238,588765  	97,979235
1241,462520  	98,052133
1244,336276  	98,171980
1247,210032  	98,284733
1250,083788  	98,302874
1252,957544  	98,358057
1255,831300  	98,328382
1258,705055  	98,354256
1261,578811  	98,398222
1264,452567  	98,489844
1267,326323  	98,592952
1270,200079  	98,697883
1273,073835  	98,747544
1275,947590  	98,788478
1278,821346  	98,850484
1281,695102  	98,857799
1284,568858  	98,842235
1287,442614  	98,803792
1290,316370  	98,844397
1293,190125  	98,834750
1296,063881  	98,816991
1298,937637  	98,825764
1301,811393  	98,796203
1304,685149  	98,774290
1307,558905  	98,734414
1310,432660  	98,769253
1313,306416  	98,742291
1316,180172  	98,719431
1319,053928  	98,694706
1321,927684  	98,752042
1324,801440  	98,766009
1327,675195  	98,758959
1330,548951  	98,751395
1333,422707  	98,736421
1336,296463  	98,655992
1339,170219  	98,580880
1342,043975  	98,606443
1344,917730  	98,567640
1347,791486  	98,512621
1350,665242  	98,471783
1353,538998  	98,427705
1356,412754  	98,380858
1359,286510  	98,330959
1362,160265  	98,203946
1365,034021  	98,176320
1367,907777  	98,012492
1370,781533  	97,888250
1373,655289  	97,679901
1376,529045  	97,605642
1379,402800  	97,511371
1382,276556  	97,491763
1385,150312  	97,501122
1388,024068  	97,490830
1390,897824  	97,528719
1393,771580  	97,536401
1396,645335  	97,570981
1399,519091  	97,594170
1402,392847  	97,620148
1405,266603  	97,510760
1408,140359  	97,417676
1411,014115  	97,262327
1413,887871  	97,139489
1416,761626  	96,890323
1419,635382  	96,788884
1422,509138  	96,662912
1425,382894  	96,515546
1428,256650  	96,379713
1431,130406  	96,292732
1434,004161  	96,068722
1436,877917  	96,143582
1439,751673  	96,088974
1442,625429  	96,233840
1445,499185  	96,375804
1448,372941  	96,598907
1451,246696  	96,692396
1454,120452  	96,768813
1456,994208  	96,903870
1459,867964  	96,969739
1462,741720  	97,046924
1465,615476  	97,279791
1468,489231  	97,339829
1471,362987  	97,320026
1474,236743  	97,638599
1477,110499  	97,628299
1479,984255  	97,670719
1482,858011  	97,903931
1485,731766  	97,915428
1488,605522  	97,790359
1491,479278  	97,872523
1494,353034  	97,804556
1497,226790  	97,843386
1500,100546  	97,869617
1502,974301  	97,784260
1505,848057  	97,759393
1508,721813  	97,556319
1511,595569  	97,444784
1514,469325  	97,349324
1517,343081  	97,309837
1520,216836  	97,159794
1523,090592  	97,138312
1525,964348  	96,966198
1528,838104  	96,853244
1531,711860  	96,828697
1534,585616  	96,924774
1537,459371  	96,855172
1540,333127  	96,829425
1543,206883  	96,716394
1546,080639  	96,670813
1548,954395  	96,593604
1551,828151  	96,609177
1554,701906  	96,579240
1557,575662  	96,470771
1560,449418  	96,542091
1563,323174  	96,334610
1566,196930  	96,293529
1569,070686  	96,240800
1571,944441  	96,269194
1574,818197  	96,120863
1577,691953  	96,098343
1580,565709  	95,936262
1583,439465  	95,803645
1586,313221  	95,668804
1589,186976  	95,304111
1592,060732  	94,733786
1594,934488  	94,527783
1597,808244  	94,662929
1600,682000  	94,603593
1603,555756  	94,265663
1606,429511  	93,879746
1609,303267  	93,531186
1612,177023  	93,201892
1615,050779  	92,838317
1617,924535  	92,633856
1620,798291  	92,123009
1623,672046  	91,918796
1626,545802  	91,719394
1629,419558  	91,590903
1632,293314  	91,442766
1635,167070  	91,353135
1638,040826  	91,228270
1640,914581  	91,079233
1643,788337  	90,797617
1646,662093  	90,787087
1649,535849  	90,525909
1652,409605  	90,314895
1655,283361  	90,935875
1658,157116  	91,269312
1661,030872  	92,015004
1663,904628  	92,943392
1666,778384  	93,579000
1669,652140  	94,235317
1672,525896  	94,849646
1675,399651  	95,408939
1678,273407  	95,918461
1681,147163  	96,254034
1684,020919  	96,513711
1686,894675  	96,874275
1689,768431  	97,073037
1692,642186  	97,406176
1695,515942  	97,676335
1698,389698  	97,722476
1701,263454  	98,097227
1704,137210  	97,934755
1707,010966  	98,137741
1709,884721  	98,329151
1712,758477  	98,480882
1715,632233  	98,546340
1718,505989  	98,745568
1721,379745  	98,724779
1724,253501  	98,847680
1727,127256  	99,038746
1730,001012  	99,057617
1732,874768  	99,105575
1735,748524  	99,279537
1738,622280  	99,126122
1741,496036  	99,203871
1744,369791  	99,148947
1747,243547  	99,189447
1750,117303  	99,196462
1752,991059  	99,243167
1755,864815  	99,240332
1758,738571  	99,274931
1761,612326  	99,327867
1764,486082  	99,366261
1767,359838  	99,361972
1770,233594  	99,325765
1773,107350  	99,418080
1775,981106  	99,367803
1778,854861  	99,396207
1781,728617  	99,396213
1784,602373  	99,419301
1787,476129  	99,454182
1790,349885  	99,379732
1793,223641  	99,472801
1796,097396  	99,337029
1798,971152  	99,363337
1801,844908  	99,404228
1804,718664  	99,481613
1807,592420  	99,466026
1810,466176  	99,486298
1813,339931  	99,529899
1816,213687  	99,577869
1819,087443  	99,600444
1821,961199  	99,613637
1824,834955  	99,536253
1827,708711  	99,530916
1830,582466  	99,503904
1833,456222  	99,529642
1836,329978  	99,543500
1839,203734  	99,486186
1842,077490  	99,497470
1844,951246  	99,573388
1847,825001  	99,446793
1850,698757  	99,476201
1853,572513  	99,501439
1856,446269  	99,535113
1859,320025  	99,503726
1862,193781  	99,506560
1865,067536  	99,424621
1867,941292  	99,443268
1870,815048  	99,483207
1873,688804  	99,484549
1876,562560  	99,578333
1879,436316  	99,517894
1882,310072  	99,525987
1885,183827  	99,496745
1888,057583  	99,580013
1890,931339  	99,544652
1893,805095  	99,454445
1896,678851  	99,491826
1899,552607  	99,592471
1902,426362  	99,613873
1905,300118  	99,587906
1908,173874  	99,582356
1911,047630  	99,612424
1913,921386  	99,604151
1916,795142  	99,481508
1919,668897  	99,511850
1922,542653  	99,476543
1925,416409  	99,606323
1928,290165  	99,640257
1931,163921  	99,552916
1934,037677  	99,651910
1936,911432  	99,575943
1939,785188  	99,624456
1942,658944  	99,671985
1945,532700  	99,784927
1948,406456  	99,708828
1951,280212  	99,913804
1954,153967  	99,824040
1957,027723  	100,074502
1959,901479  	99,978610
1962,775235  	100,205019
1965,648991  	99,753764
1968,522747  	99,791497
1971,396502  	100,277522
1974,270258  	99,999184
1977,144014  	99,823349
1980,017770  	99,729422
1982,891526  	99,549506
1985,765282  	99,683854
1988,639037  	99,778252
1991,512793  	99,497527
1994,386549  	99,533590
1997,260305  	99,927928
2000,134061  	99,819502
2003,007817  	99,919403
2005,881572  	99,979263
2008,755328  	99,926281
2011,629084  	99,792994
2014,502840  	100,224758
2017,376596  	99,966438
2020,250352  	99,670223
2023,124107  	100,138265
2025,997863  	99,724123
2028,871619  	99,798994
2031,745375  	99,999590
2034,619131  	99,892250
2037,492887  	99,348899
2040,366642  	99,295977
2043,240398  	99,578759
2046,114154  	99,499902
2048,987910  	99,550492
2051,861666  	99,323180
2054,735422  	99,556420
2057,609177  	99,560576
2060,482933  	99,578880
2063,356689  	99,539835
2066,230445  	99,221502
2069,104201  	99,362427
2071,977957  	99,421795
2074,851712  	99,294332
2077,725468  	99,276578
2080,599224  	99,484249
2083,472980  	99,190460
2086,346736  	99,479248
2089,220492  	99,453632
2092,094247  	99,358232
2094,968003  	99,431248
2097,841759  	99,470267
2100,715515  	99,560808
2103,589271  	99,480955
2106,463027  	99,456990
2109,336782  	99,373763
2112,210538  	99,395811
2115,084294  	99,314026
2117,958050  	99,327614
2120,831806  	99,601791
2123,705562  	99,665798
2126,579317  	99,718679
2129,453073  	99,913528
2132,326829  	99,680596
2135,200585  	99,572276
2138,074341  	99,689733
2140,948097  	99,895373
2143,821852  	99,897109
2146,695608  	99,801223
2149,569364  	99,734650
2152,443120  	99,466854
2155,316876  	99,803191
2158,190632  	99,677599
2161,064387  	99,359959
2163,938143  	99,152021
2166,811899  	98,919718
2169,685655  	98,948726
2172,559411  	99,341713
2175,433167  	99,414710
2178,306922  	99,097527
2181,180678  	99,180852
2184,054434  	99,416430
2186,928190  	99,254374
2189,801946  	99,523654
2192,675702  	99,428776
2195,549457  	99,486220
2198,423213  	99,150881
2201,296969  	99,626009
2204,170725  	99,572602
2207,044481  	99,486060
2209,918237  	99,577840
2212,791992  	99,696605
2215,665748  	99,509381
2218,539504  	99,430305
2221,413260  	99,682344
2224,287016  	99,738709
2227,160772  	99,628045
2230,034527  	99,864290
2232,908283  	99,521542
2235,782039  	99,403238
2238,655795  	99,615186
2241,529551  	99,342659
2244,403307  	99,815273
2247,277062  	99,651189
2250,150818  	99,509085
2253,024574  	99,440176
2255,898330  	99,367884
2258,772086  	99,277323
2261,645842  	99,286361
2264,519597  	99,192989
2267,393353  	99,060397
2270,267109  	99,123340
2273,140865  	99,083563
2276,014621  	99,181629
2278,888377  	99,108351
2281,762132  	99,135913
2284,635888  	99,204283
2287,509644  	99,314735
2290,383400  	99,409541
2293,257156  	99,495371
2296,130912  	99,564963
2299,004667  	99,521841
2301,878423  	99,657239
2304,752179  	99,662585
2307,625935  	99,721214
2310,499691  	99,693945
2313,373447  	99,713505
2316,247202  	99,753017
2319,120958  	99,714707
2321,994714  	99,736172
2324,868470  	99,842189
2327,742226  	99,954517
2330,615982  	99,897140
2333,489737  	99,768476
2336,363493  	99,810900
2339,237249  	99,746262
2342,111005  	99,780373
2344,984761  	99,792646
2347,858517  	100,005805
2350,732273  	100,022233
2353,606028  	99,846091
2356,479784  	99,735775
2359,353540  	99,528361
2362,227296  	99,419554
2365,101052  	99,040674
2367,974808  	98,875017
2370,848563  	98,975306
2373,722319  	99,024222
2376,596075  	99,164552
2379,469831  	99,267329
2382,343587  	99,351140
2385,217343  	99,432657
2388,091098  	99,511712
2390,964854  	99,597368
2393,838610  	99,630709
2396,712366  	99,684162
2399,586122  	99,684091
2402,459878  	99,650206
2405,333633  	99,671018
2408,207389  	99,619964
2411,081145  	99,578659
2413,954901  	99,548288
2416,828657  	99,501898
2419,702413  	99,602299
2422,576168  	99,640859
2425,449924  	99,547659
2428,323680  	99,572467
2431,197436  	99,567912
2434,071192  	99,559277
2436,944948  	99,526871
2439,818703  	99,590054
2442,692459  	99,574207
2445,566215  	99,510948
2448,439971  	99,471441
2451,313727  	99,477225
2454,187483  	99,465859
2457,061238  	99,449470
2459,934994  	99,417595
2462,808750  	99,388235
2465,682506  	99,414640
2468,556262  	99,435594
2471,430018  	99,401509
2474,303773  	99,456468
2477,177529  	99,422462
2480,051285  	99,374326
2482,925041  	99,301388
2485,798797  	99,351931
2488,672553  	99,355302
2491,546308  	99,327730
2494,420064  	99,352236
2497,293820  	99,333033
2500,167576  	99,394081
2503,041332  	99,401527
2505,915088  	99,284888
2508,788843  	99,286732
2511,662599  	99,337060
2514,536355  	99,335416
2517,410111  	99,290201
2520,283867  	99,312651
2523,157623  	99,299656
2526,031378  	99,283324
2528,905134  	99,234206
2531,778890  	99,188529
2534,652646  	99,236128
2537,526402  	99,240997
2540,400158  	99,216249
2543,273913  	99,201846
2546,147669  	99,161358
2549,021425  	99,198485
2551,895181  	99,178028
2554,768937  	99,176397
2557,642693  	99,178390
2560,516448  	99,149089
2563,390204  	99,157099
2566,263960  	99,122762
2569,137716  	99,034076
2572,011472  	99,086394
2574,885228  	99,086447
2577,758983  	98,998208
2580,632739  	99,038489
2583,506495  	98,998988
2586,380251  	98,946584
2589,254007  	98,942309
2592,127763  	98,879785
2595,001518  	98,928346
2597,875274  	98,880207
2600,749030  	98,895652
2603,622786  	98,814792
2606,496542  	98,816873
2609,370298  	98,752030
2612,244053  	98,725988
2615,117809  	98,690732
2617,991565  	98,767274
2620,865321  	98,710275
2623,739077  	98,650449
2626,612833  	98,618718
2629,486588  	98,606656
2632,360344  	98,614758
2635,234100  	98,567262
2638,107856  	98,529372
2640,981612  	98,475461
2643,855368  	98,495517
2646,729123  	98,463188
2649,602879  	98,436004
2652,476635  	98,450251
2655,350391  	98,422893
2658,224147  	98,427051
2661,097903  	98,416438
2663,971658  	98,423427
2666,845414  	98,416749
2669,719170  	98,381233
2672,592926  	98,367069
2675,466682  	98,360263
2678,340438  	98,335888
2681,214193  	98,317655
2684,087949  	98,277758
2686,961705  	98,237009
2689,835461  	98,172219
2692,709217  	98,165596
2695,582973  	98,126219
2698,456728  	98,114495
2701,330484  	98,071306
2704,204240  	98,029411
2707,077996  	97,986586
2709,951752  	97,989771
2712,825508  	97,943129
2715,699263  	97,882833
2718,573019  	97,855100
2721,446775  	97,808074
2724,320531  	97,771510
2727,194287  	97,748813
2730,068043  	97,680049
2732,941798  	97,660357
2735,815554  	97,598530
2738,689310  	97,551214
2741,563066  	97,540396
2744,436822  	97,500109
2747,310578  	97,470879
2750,184333  	97,433717
2753,058089  	97,355182
2755,931845  	97,314169
2758,805601  	97,267277
2761,679357  	97,253154
2764,553113  	97,193370
2767,426868  	97,141527
2770,300624  	97,114096
2773,174380  	97,028554
2776,048136  	96,995220
2778,921892  	96,950682
2781,795648  	96,943289
2784,669403  	96,868807
2787,543159  	96,797056
2790,416915  	96,768759
2793,290671  	96,755280
2796,164427  	96,644273
2799,038183  	96,630461
2801,911938  	96,584224
2804,785694  	96,554326
2807,659450  	96,465205
2810,533206  	96,399992
2813,406962  	96,337212
2816,280718  	96,242704
2819,154474  	96,183493
2822,028229  	96,166530
2824,901985  	96,096024
2827,775741  	96,031377
2830,649497  	95,933332
2833,523253  	95,854980
2836,397009  	95,844740
2839,270764  	95,793799
2842,144520  	95,663059
2845,018276  	95,630623
2847,892032  	95,591599
2850,765788  	95,547740
2853,639544  	95,336545
2856,513299  	95,249363
2859,387055  	95,140371
2862,260811  	95,092230
2865,134567  	95,039257
2868,008323  	94,961763
2870,882079  	94,920524
2873,755834  	94,852314
2876,629590  	94,727212
2879,503346  	94,705125
2882,377102  	94,649454
2885,250858  	94,584795
2888,124614  	94,509804
2890,998369  	94,462487
2893,872125  	94,454137
2896,745881  	94,302578
2899,619637  	94,222031
2902,493393  	94,170249
2905,367149  	94,092121
2908,240904  	94,045861
2911,114660  	93,956598
2913,988416  	93,906312
2916,862172  	93,840365
2919,735928  	93,682434
2922,609684  	93,510684
2925,483439  	93,408920
2928,357195  	93,243618
2931,230951  	93,181563
2934,104707  	93,179583
2936,978463  	93,122038
2939,852219  	93,110178
2942,725974  	93,074609
2945,599730  	93,021551
2948,473486  	92,938043
2951,347242  	92,832970
2954,220998  	92,736310
2957,094754  	92,652040
2959,968509  	92,533831
2962,842265  	92,453860
2965,716021  	92,392218
2968,589777  	92,369914
2971,463533  	92,315650
2974,337289  	92,272630
2977,211044  	92,226079
2980,084800  	92,175791
2982,958556  	92,188863
2985,832312  	92,149465
2988,706068  	92,104291
2991,579824  	92,114133
2994,453579  	92,026773
2997,327335  	92,002557
3000,201091  	91,887720
3003,074847  	91,864259
3005,948603  	91,727470
3008,822359  	91,621236
3011,696114  	91,528054
3014,569870  	91,404429
3017,443626  	91,369260
3020,317382  	91,268776
3023,191138  	91,215654
3026,064894  	91,104378
3028,938649  	91,037153
3031,812405  	90,907046
3034,686161  	90,788746
3037,559917  	90,720636
3040,433673  	90,619846
3043,307429  	90,547442
3046,181184  	90,478838
3049,054940  	90,353889
3051,928696  	90,235432
3054,802452  	90,147829
3057,676208  	90,056877
3060,549964  	89,980110
3063,423719  	89,902811
3066,297475  	89,762528
3069,171231  	89,717943
3072,044987  	89,621918
3074,918743  	89,467187
3077,792499  	89,433868
3080,666254  	89,307235
3083,540010  	89,322531
3086,413766  	89,193465
3089,287522  	89,073491
3092,161278  	88,986608
3095,035034  	88,919366
3097,908789  	88,818525
3100,782545  	88,699687
3103,656301  	88,713843
3106,530057  	88,534139
3109,403813  	88,446407
3112,277569  	88,341256
3115,151324  	88,248623
3118,025080  	88,146070
3120,898836  	88,088095
3123,772592  	87,934928
3126,646348  	87,878660
3129,520104  	87,790338
3132,393859  	87,673279
3135,267615  	87,606562
3138,141371  	87,524235
3141,015127  	87,394242
3143,888883  	87,276794
3146,762639  	87,152355
3149,636394  	87,098501
3152,510150  	86,965191
3155,383906  	86,879454
3158,257662  	86,793466
3161,131418  	86,721431
3164,005174  	86,568214
3166,878929  	86,450866
3169,752685  	86,360979
3172,626441  	86,264468
3175,500197  	86,178651
3178,373953  	86,111300
3181,247709  	86,003828
3184,121464  	85,883801
3186,995220  	85,894070
3189,868976  	85,764288
3192,742732  	85,625399
3195,616488  	85,589006
3198,490244  	85,506262
3201,363999  	85,405677
3204,237755  	85,365738
3207,111511  	85,271476
3209,985267  	85,281100
3212,859023  	85,130519
3215,732779  	85,062201
3218,606534  	85,080176
3221,480290  	84,967596
3224,354046  	84,906280
3227,227802  	84,823852
3230,101558  	84,809740
3232,975314  	84,859341
3235,849069  	84,759679
3238,722825  	84,710356
3241,596581  	84,708471
3244,470337  	84,642582
3247,344093  	84,594891
3250,217849  	84,558563
3253,091604  	84,584439
3255,965360  	84,550089
3258,839116  	84,510229
3261,712872  	84,467445
3264,586628  	84,399181
3267,460384  	84,400890
3270,334139  	84,292269
3273,207895  	84,397930
3276,081651  	84,351361
3278,955407  	84,406243
3281,829163  	84,261602
3284,702919  	84,330198
3287,576674  	84,278725
3290,450430  	84,252793
3293,324186  	84,143717
3296,197942  	84,214474
3299,071698  	84,175095
3301,945454  	84,053114
3304,819210  	84,088993
3307,692965  	84,073312
3310,566721  	84,035418
3313,440477  	83,926166
3316,314233  	83,914118
3319,187989  	83,987684
3322,061745  	83,940756
3324,935500  	83,845458
3327,809256  	83,837986
3330,683012  	83,866516
3333,556768  	83,889539
3336,430524  	83,841114
3339,304280  	83,815584
3342,178035  	83,766522
3345,051791  	83,812761
3347,925547  	83,786226
3350,799303  	83,832794
3353,673059  	83,939985
3356,546815  	83,867105
3359,420570  	83,850294
3362,294326  	83,853479
3365,168082  	83,958320
3368,041838  	83,911390
3370,915594  	83,884774
3373,789350  	84,104242
3376,663105  	84,084913
3379,536861  	84,187066
3382,410617  	84,184613
3385,284373  	84,183803
3388,158129  	84,381505
3391,031885  	84,407733
3393,905640  	84,390910
3396,779396  	84,500481
3399,653152  	84,651216
3402,526908  	84,701600
3405,400664  	84,897372
3408,274420  	84,954681
3411,148175  	85,098258
3414,021931  	85,223775
3416,895687  	85,266716
3419,769443  	85,437676
3422,643199  	85,574723
3425,516955  	85,752277
3428,390710  	85,805949
3431,264466  	86,040047
3434,138222  	86,147466
3437,011978  	86,228779
3439,885734  	86,399026
3442,759490  	86,562714
3445,633245  	86,735778
3448,507001  	86,806808
3451,380757  	87,134466
3454,254513  	87,237271
3457,128269  	87,412478
3460,002025  	87,596307
3462,875780  	87,786877
3465,749536  	87,935552
3468,623292  	88,172263
3471,497048  	88,341432
3474,370804  	88,508738
3477,244560  	88,748415
3480,118315  	88,926649
3482,992071  	89,130352
3485,865827  	89,204401
3488,739583  	89,531499
3491,613339  	89,792142
3494,487095  	89,927406
3497,360850  	90,111735
3500,234606  	90,435277
3503,108362  	90,457502
3505,982118  	90,741895
3508,855874  	90,930780
3511,729630  	91,233850
3514,603385  	91,419707
3517,477141  	91,650653
3520,350897  	91,922238
3523,224653  	92,018866
3526,098409  	92,286799
3528,972165  	92,465794
3531,845920  	92,704037
3534,719676  	92,987632
3537,593432  	93,150349
3540,467188  	93,460973
3543,340944  	93,596748
3546,214700  	93,860873
3549,088455  	94,088179
3551,962211  	94,240122
3554,835967  	94,621227
3557,709723  	94,877526
3560,583479  	95,088389
3563,457235  	95,270560
3566,330990  	95,394302
3569,204746  	95,649013
3572,078502  	95,912073
3574,952258  	96,161599
3577,826014  	96,484524
3580,699770  	96,713919
3583,573525  	96,962698
3586,447281  	97,070744
3589,321037  	97,251791
3592,194793  	97,585057
3595,068549  	97,778730
3597,942305  	98,048788
3600,816060  	98,179837
3603,689816  	98,551285
3606,563572  	98,731576
3609,437328  	98,885767
3612,311084  	99,056622
3615,184840  	99,351662
3618,058595  	99,445742
3620,932351  	99,737000
3623,806107  	100,038299
3626,679863  	100,155045
3629,553619  	100,333607
3632,427375  	100,356491
3635,301130  	100,586599
3638,174886  	100,840449
3641,048642  	101,047384
3643,922398  	101,171922
3646,796154  	101,172108
3649,669910  	101,278490
3652,543665  	101,523158
3655,417421  	101,627074
3658,291177  	101,740884
3661,164933  	102,035789
3664,038689  	102,171152
3666,912445  	102,393331
3669,786200  	102,337049
3672,659956  	102,322102
3675,533712  	102,293923
3678,407468  	102,422087
3681,281224  	102,476734
3684,154980  	102,614546
3687,028735  	102,692088
3689,902491  	102,702832
3692,776247  	102,736120
3695,650003  	102,759974
3698,523759  	102,820500
3701,397515  	102,850039
3704,271270  	102,941379
3707,145026  	103,001623
3710,018782  	102,880845
3712,892538  	102,933092
3715,766294  	102,965033
3718,640050  	102,991802
3721,513805  	103,135782
3724,387561  	103,143930
3727,261317  	103,165417
3730,135073  	103,347120
3733,008829  	103,264462
3735,882585  	103,095459
3738,756340  	103,226623
3741,630096  	103,095266
3744,503852  	103,209815
3747,377608  	103,063670
3750,251364  	102,908685
3753,125120  	103,007493
3755,998875  	103,002433
3758,872631  	102,883818
3761,746387  	103,097563
3764,620143  	103,141525
3767,493899  	103,053205
3770,367655  	103,143990
3773,241411  	103,119107
3776,115166  	103,175783
3778,988922  	103,243298
3781,862678  	103,283575
3784,736434  	103,180165
3787,610190  	103,376107
3790,483946  	103,365201
3793,357701  	103,470458
3796,231457  	103,426226
3799,105213  	103,426400
3801,978969  	103,601963
3804,852725  	103,204037
3807,726481  	103,312922
3810,600236  	103,331105
3813,473992  	103,385753
3816,347748  	103,503413
3819,221504  	103,418299
3822,095260  	103,126060
3824,969016  	103,062050
3827,842771  	103,265129
3830,716527  	103,350719
3833,590283  	103,582376
3836,464039  	103,209881
3839,337795  	103,182976
3842,211551  	103,147277
3845,085306  	103,180572
3847,959062  	103,470112
3850,832818  	103,321358
3853,706574  	103,110156
3856,580330  	103,316045
3859,454086  	103,141247
3862,327841  	103,116460
3865,201597  	103,303494
3868,075353  	103,183574
3870,949109  	103,166960
3873,822865  	103,005951
3876,696621  	103,118106
3879,570376  	103,195846
3882,444132  	103,525799
3885,317888  	103,307662
3888,191644  	103,427342
3891,065400  	103,194015
3893,939156  	103,295198
3896,812911  	103,436212
3899,686667  	103,277634
3902,560423  	103,188500
3905,434179  	103,043821
3908,307935  	103,198248
3911,181691  	103,387913
3914,055446  	103,293932
3916,929202  	103,334354
3919,802958  	103,366304
3922,676714  	103,419208
3925,550470  	103,306368
3928,424226  	103,353610
3931,297981  	103,302747
3934,171737  	103,346428
3937,045493  	103,483538
3939,919249  	103,337518
3942,793005  	103,314543
3945,666761  	103,353604
3948,540516  	103,385004
3951,414272  	103,395680
3954,288028  	103,396038
3957,161784  	103,410149
3960,035540  	103,373097
3962,909296  	103,434310
3965,783051  	103,402037
3968,656807  	103,453402
3971,530563  	103,474838
3974,404319  	103,469742
3977,278075  	103,445620
3980,151831  	103,473953
3983,025586  	103,454035
3985,899342  	103,506106
3988,773098  	103,554526
3991,646854  	103,450722
3994,520610  	103,491061
3997,394366  	103,437265
4000,268121  	103,535237