File: Grupo 8 03-10-2023/MoS2_Isa_FTIR/MoS2_IPGR_FTIR_1.txt
##TITLE=No Description
##DATA TYPE=INFRARED SPECTRUM
##XUNITS=1/CM
##YUNITS=%T
399.452  	89.1917
402.326  	87.5129
405.2  	85.9589
408.073  	85.7276
410.947  	87.3212
413.821  	86.1417
416.695  	84.0277
419.568  	82.9236
422.442  	81.3823
425.316  	81.1722
428.19  	81.5447
431.063  	81.5868
433.937  	83.6127
436.811  	84.99
439.685  	85.1564
442.558  	85.2988
445.432  	85.7426
448.306  	85.4096
451.18  	85.4961
454.053  	86.1551
456.927  	86.5706
459.801  	85.9666
462.675  	86.0331
465.548  	86.5022
468.422  	86.3912
471.296  	86.338
474.17  	85.5287
477.043  	84.12
479.917  	83.1599
482.791  	81.233
485.665  	80.0664
488.538  	80.3824
491.412  	81.2397
494.286  	82.4164
497.16  	83.6684
500.034  	84.4316
502.907  	84.722
505.781  	85.0799
508.655  	85.2993
511.529  	85.3675
514.402  	85.4967
517.276  	85.4491
520.15  	84.8212
523.024  	84.9787
525.897  	85.2264
528.771  	84.7037
531.645  	84.4726
534.519  	84.4905
537.392  	84.1134
540.266  	84.1074
543.14  	83.9992
546.014  	83.7079
548.887  	83.4866
551.761  	83.3445
554.635  	83.2173
557.509  	83.1507
560.382  	82.8788
563.256  	82.6882
566.13  	82.4493
569.004  	82.1851
571.877  	82.2598
574.751  	81.9028
577.625  	81.9226
580.499  	81.5622
583.372  	81.315
586.246  	81.2835
589.12  	81.0578
591.994  	80.7034
594.867  	80.7233
597.741  	80.5417
600.615  	80.493
603.489  	80.2806
606.362  	80.2243
609.236  	79.9077
612.11  	79.9033
614.984  	79.823
617.858  	79.7014
620.731  	79.6341
623.605  	79.5768
626.479  	79.5567
629.353  	79.5115
632.226  	79.4173
635.1  	79.3731
637.974  	79.4211
640.848  	79.4036
643.721  	79.4024
646.595  	79.5341
649.469  	79.6362
652.343  	79.7004
655.216  	79.8065
658.09  	80.0228
660.964  	80.1053
663.838  	80.3973
666.711  	80.5321
669.585  	80.6771
672.459  	80.8131
675.333  	80.9744
678.206  	81.194
681.08  	81.3729
683.954  	81.5905
686.828  	81.7668
689.701  	82.0802
692.575  	82.3618
695.449  	82.5635
698.323  	82.872
701.196  	83.1179
704.07  	83.3857
706.944  	83.5615
709.818  	83.9039
712.691  	84.1504
715.565  	84.4637
718.439  	84.7303
721.313  	84.9731
724.186  	85.3219
727.06  	85.6015
729.934  	85.8657
732.808  	86.1586
735.681  	86.4096
738.555  	86.6661
741.429  	86.8535
744.303  	87.1915
747.177  	87.4128
750.05  	87.784
752.924  	88.094
755.798  	88.2668
758.672  	88.4526
761.545  	88.7954
764.419  	89.0549
767.293  	89.2795
770.167  	89.4983
773.04  	89.7487
775.914  	89.9191
778.788  	90.1952
781.662  	90.397
784.535  	90.6091
787.409  	90.7525
790.283  	90.9295
793.157  	91.0199
796.03  	91.1494
798.904  	91.0927
801.778  	90.8758
804.652  	90.3299
807.525  	88.7532
810.399  	84.3877
813.273  	74.2583
816.147  	65.3203
819.02  	70.5205
821.894  	82.6481
824.768  	88.6904
827.642  	90.8231
830.515  	91.9368
833.389  	92.6138
836.263  	93.1214
839.137  	93.4529
842.01  	93.7185
844.884  	93.9068
847.758  	94.1314
850.632  	94.3507
853.505  	94.5046
856.379  	94.5788
859.253  	94.7802
862.127  	94.9383
865.001  	95.0419
867.874  	95.0987
870.748  	95.1516
873.622  	95.304
876.496  	95.3075
879.369  	95.3274
882.243  	95.4729
885.117  	95.4542
887.991  	95.4719
890.864  	95.401
893.738  	95.4107
896.612  	95.3336
899.486  	95.2827
902.359  	95.1594
905.233  	95.0147
908.107  	94.785
910.981  	94.5054
913.854  	94.0739
916.728  	93.4387
919.602  	92.6441
922.476  	91.9833
925.349  	91.2236
928.223  	89.9133
931.097  	87.767
933.971  	84.6691
936.844  	80.9736
939.718  	75.6064
942.592  	66.2514
945.466  	53.417
948.339  	42.2262
951.213  	38.8763
954.087  	47.0599
956.961  	61.6114
959.834  	75.824
962.708  	84.6147
965.582  	88.8053
968.456  	90.962
971.329  	92.3421
974.203  	93.3759
977.077  	94.1409
979.951  	94.7593
982.824  	95.155
985.698  	95.4851
988.572  	95.7439
991.446  	95.9273
994.32  	96.1417
997.193  	96.2186
1000.07  	96.2558
1002.94  	96.296
1005.81  	96.3351
1008.69  	96.3611
1011.56  	96.3923
1014.44  	96.3649
1017.31  	96.3769
1020.18  	96.3712
1023.06  	96.3276
1025.93  	96.3029
1028.8  	96.2757
1031.68  	96.2466
1034.55  	96.1762
1037.43  	96.0789
1040.3  	95.9731
1043.17  	95.8116
1046.05  	95.626
1048.92  	95.4055
1051.79  	95.1951
1054.67  	94.9129
1057.54  	94.5679
1060.42  	94.2161
1063.29  	93.7794
1066.16  	93.2735
1069.04  	92.709
1071.91  	92.0851
1074.78  	91.5058
1077.66  	90.7244
1080.53  	89.6743
1083.41  	88.3858
1086.28  	86.6289
1089.15  	84.3692
1092.03  	81.6303
1094.9  	78.574
1097.77  	75.1129
1100.65  	71.7999
1103.52  	69.3082
1106.4  	68.104
1109.27  	68.1018
1112.14  	69.0174
1115.02  	70.2428
1117.89  	70.8199
1120.76  	69.2195
1123.64  	65.0199
1126.51  	60.7897
1129.39  	60.2001
1132.26  	63.6694
1135.13  	69.3787
1138.01  	74.4255
1140.88  	77.3819
1143.75  	78.3871
1146.63  	77.9474
1149.5  	76.4401
1152.38  	73.811
1155.25  	70.3879
1158.12  	67.3031
1161  	66.3049
1163.87  	68.8567
1166.74  	74.9181
1169.62  	81.8944
1172.49  	87.2432
1175.37  	90.438
1178.24  	92.2237
1181.11  	93.1961
1183.99  	93.7334
1186.86  	94.0167
1189.73  	94.3721
1192.61  	94.7711
1195.48  	95.1176
1198.36  	95.3402
1201.23  	95.468
1204.1  	95.5468
1206.98  	95.5731
1209.85  	95.5763
1212.72  	95.5552
1215.6  	95.5142
1218.47  	95.4747
1221.35  	95.3866
1224.22  	95.245
1227.09  	95.098
1229.97  	94.9623
1232.84  	94.77
1235.72  	94.5416
1238.59  	94.3783
1241.46  	94.2001
1244.34  	94.0213
1247.21  	93.7793
1250.08  	93.4456
1252.96  	93.2231
1255.83  	93.1163
1258.71  	92.9962
1261.58  	92.7275
1264.45  	92.4617
1267.33  	92.1385
1270.2  	91.7446
1273.07  	91.2956
1275.95  	90.6596
1278.82  	89.8705
1281.7  	88.8968
1284.57  	87.7251
1287.44  	86.486
1290.32  	85.2102
1293.19  	83.9552
1296.06  	82.8347
1298.94  	81.7857
1301.81  	81.0587
1304.69  	80.7132
1307.56  	80.6857
1310.43  	80.9552
1313.31  	81.4761
1316.18  	82.3679
1319.05  	83.5837
1321.93  	85.0159
1324.8  	86.4387
1327.68  	87.3766
1330.55  	88.0526
1333.42  	87.9608
1336.3  	86.8999
1339.17  	85.2383
1342.04  	84.8275
1344.92  	86.4971
1347.79  	88.2726
1350.67  	89.3775
1353.54  	89.6236
1356.41  	88.7206
1359.29  	86.7654
1362.16  	83.1364
1365.03  	78.8738
1367.91  	76.7617
1370.78  	77.1035
1373.66  	76.7155
1376.53  	73.1217
1379.4  	70.6696
1382.28  	74.0955
1385.15  	79.4582
1388.02  	83.6018
1390.9  	86.0679
1393.77  	86.3476
1396.65  	86.3947
1399.52  	86.3136
1402.39  	86.1413
1405.27  	85.7726
1408.14  	85.7219
1411.01  	85.9817
1413.89  	86.567
1416.76  	87.2369
1419.64  	87.9842
1422.51  	88.5907
1425.38  	89.1141
1428.26  	89.6145
1431.13  	90.0936
1434  	90.5508
1436.88  	90.975
1439.75  	91.3825
1442.63  	91.6106
1445.5  	91.5986
1448.37  	90.9625
1451.25  	89.8074
1454.12  	88.5833
1456.99  	87.8708
1459.87  	86.6759
1462.74  	85.3868
1465.62  	84.2479
1468.49  	84.1764
1471.36  	85.936
1474.24  	88.7846
1477.11  	90.6634
1479.98  	91.8579
1482.86  	92.8189
1485.73  	93.5186
1488.61  	94.0374
1491.48  	94.4562
1494.35  	94.9057
1497.23  	95.2742
1500.1  	95.6424
1502.97  	95.9546
1505.85  	96.1489
1508.72  	96.2415
1511.6  	96.455
1514.47  	96.5628
1517.34  	96.653
1520.22  	96.8603
1523.09  	96.8794
1525.96  	97.0098
1528.84  	97.0872
1531.71  	97.24
1534.59  	97.2287
1537.46  	97.3596
1540.33  	97.3332
1543.21  	97.4482
1546.08  	97.4738
1548.95  	97.5452
1551.83  	97.5826
1554.7  	97.6537
1557.58  	97.8232
1560.45  	97.6464
1563.32  	97.8004
1566.2  	97.8098
1569.07  	97.8937
1571.94  	97.8518
1574.82  	97.95
1577.69  	97.898
1580.57  	97.9469
1583.44  	97.9099
1586.31  	97.9004
1589.19  	97.8899
1592.06  	97.8933
1594.93  	97.8732
1597.81  	97.8515
1600.68  	97.8393
1603.56  	97.8013
1606.43  	97.7566
1609.3  	97.7246
1612.18  	97.6577
1615.05  	97.6616
1617.92  	97.4955
1620.8  	97.4872
1623.67  	97.3241
1626.55  	97.2546
1629.42  	97.1419
1632.29  	97.0216
1635.17  	97.0186
1638.04  	96.7955
1640.91  	96.7621
1643.79  	96.7974
1646.66  	96.808
1649.54  	96.636
1652.41  	96.9065
1655.28  	96.6258
1658.16  	96.7894
1661.03  	96.7985
1663.9  	96.7857
1666.78  	96.9599
1669.65  	96.9766
1672.53  	97.0515
1675.4  	97.2086
1678.27  	97.2783
1681.15  	97.3495
1684.02  	97.5098
1686.89  	97.5737
1689.77  	97.7193
1692.64  	97.8044
1695.52  	97.9151
1698.39  	97.9536
1701.26  	97.9993
1704.14  	98.0544
1707.01  	98.0726
1709.88  	98.1169
1712.76  	98.183
1715.63  	98.1636
1718.51  	98.1486
1721.38  	98.251
1724.25  	98.2266
1727.13  	98.279
1730  	98.2338
1732.87  	98.2989
1735.75  	98.2242
1738.62  	98.3193
1741.5  	98.2534
1744.37  	98.2488
1747.24  	98.2246
1750.12  	98.1843
1752.99  	98.1487
1755.86  	98.1732
1758.74  	98.0335
1761.61  	98.0418
1764.49  	97.9459
1767.36  	97.9354
1770.23  	98.002
1773.11  	98.0503
1775.98  	98.1745
1778.85  	98.3149
1781.73  	98.3519
1784.6  	98.478
1787.48  	98.5062
1790.35  	98.5926
1793.22  	98.5565
1796.1  	98.5817
1798.97  	98.5802
1801.84  	98.5919
1804.72  	98.6041
1807.59  	98.6266
1810.47  	98.611
1813.34  	98.6365
1816.21  	98.6885
1819.09  	98.658
1821.96  	98.7144
1824.83  	98.652
1827.71  	98.7009
1830.58  	98.6757
1833.46  	98.6849
1836.33  	98.6881
1839.2  	98.7002
1842.08  	98.731
1844.95  	98.7068
1847.83  	98.7458
1850.7  	98.6929
1853.57  	98.7263
1856.45  	98.758
1859.32  	98.7553
1862.19  	98.753
1865.07  	98.7329
1867.94  	98.7114
1870.82  	98.7743
1873.69  	98.7824
1876.56  	98.7179
1879.44  	98.8083
1882.31  	98.7847
1885.18  	98.8041
1888.06  	98.8449
1890.93  	98.7664
1893.81  	98.8091
1896.68  	98.7971
1899.55  	98.7711
1902.43  	98.8341
1905.3  	98.7917
1908.17  	98.8077
1911.05  	98.8367
1913.92  	98.9363
1916.8  	98.9371
1919.67  	98.8673
1922.54  	98.8787
1925.42  	98.8982
1928.29  	98.8279
1931.16  	98.8821
1934.04  	98.9007
1936.91  	98.9178
1939.79  	98.9049
1942.66  	99.0208
1945.53  	98.9496
1948.41  	98.9851
1951.28  	98.8361
1954.15  	99.0994
1957.03  	99.0818
1959.9  	99.0368
1962.78  	99.2568
1965.65  	99.1517
1968.52  	99.2685
1971.4  	99.22
1974.27  	99.474
1977.14  	99.4421
1980.02  	99.1622
1982.89  	99.1468
1985.77  	99.1427
1988.64  	99.0088
1991.51  	99.0841
1994.39  	99.0593
1997.26  	99.1188
2000.13  	99.2241
2003.01  	99.1296
2005.88  	99.5504
2008.76  	99.313
2011.63  	99.2163
2014.5  	99.5293
2017.38  	99.7126
2020.25  	99.318
2023.12  	99.5886
2026  	99.514
2028.87  	99.4024
2031.75  	99.8328
2034.62  	99.5159
2037.49  	99.1552
2040.37  	99.4547
2043.24  	99.2595
2046.11  	99.2821
2048.99  	99.2241
2051.86  	99.3209
2054.74  	99.1683
2057.61  	99.0161
2060.48  	99.2719
2063.36  	99.1421
2066.23  	99.0541
2069.1  	99.0756
2071.98  	99.0468
2074.85  	99.02
2077.73  	98.976
2080.6  	98.9666
2083.47  	98.878
2086.35  	99.0401
2089.22  	99.017
2092.09  	99.0021
2094.97  	99.1384
2097.84  	98.9783
2100.72  	98.9425
2103.59  	98.9366
2106.46  	98.9675
2109.34  	98.6984
2112.21  	98.7544
2115.08  	98.7475
2117.96  	98.7068
2120.83  	98.8199
2123.71  	98.8289
2126.58  	98.9615
2129.45  	98.9958
2132.33  	98.8927
2135.2  	98.8964
2138.07  	98.6466
2140.95  	98.8978
2143.82  	98.9982
2146.7  	98.8568
2149.57  	98.9571
2152.44  	98.9823
2155.32  	99.4973
2158.19  	99.7346
2161.06  	99.0949
2163.94  	98.4046
2166.81  	98.6882
2169.69  	99.0276
2172.56  	99.1858
2175.43  	99.061
2178.31  	98.8468
2181.18  	99.0064
2184.05  	99.1001
2186.93  	99.3703
2189.8  	99.3549
2192.68  	99.0127
2195.55  	99.0869
2198.42  	98.9395
2201.3  	99.0757
2204.17  	99.0202
2207.04  	99.1559
2209.92  	99.2276
2212.79  	99.2632
2215.67  	99.3385
2218.54  	99.0849
2221.41  	99.0395
2224.29  	98.8267
2227.16  	99.207
2230.03  	99.1079
2232.91  	99.0075
2235.78  	99.1837
2238.66  	99.0459
2241.53  	98.9483
2244.4  	98.9391
2247.28  	99.0301
2250.15  	99.1128
2253.02  	99.1294
2255.9  	99.0477
2258.77  	99.0924
2261.65  	99.0333
2264.52  	98.9731
2267.39  	98.9832
2270.27  	98.9611
2273.14  	98.9005
2276.01  	98.9005
2278.89  	98.9106
2281.76  	98.812
2284.64  	98.8278
2287.51  	98.7603
2290.38  	98.7389
2293.26  	98.4089
2296.13  	98.6022
2299  	98.5342
2301.88  	98.5952
2304.75  	98.5448
2307.63  	98.4457
2310.5  	98.4358
2313.37  	98.3167
2316.25  	98.2931
2319.12  	98.2033
2321.99  	98.1497
2324.87  	98.1345
2327.74  	98.223
2330.62  	98.2394
2333.49  	98.3604
2336.36  	98.3269
2339.24  	98.3628
2342.11  	98.2247
2344.98  	98.1711
2347.86  	98.143
2350.73  	98.2368
2353.61  	98.1954
2356.48  	98.2474
2359.35  	98.2999
2362.23  	98.3341
2365.1  	98.4038
2367.97  	98.4458
2370.85  	98.4789
2373.72  	98.4992
2376.6  	98.5084
2379.47  	98.5336
2382.34  	98.5995
2385.22  	98.5995
2388.09  	98.5906
2390.96  	98.5407
2393.84  	98.4746
2396.71  	98.4463
2399.59  	98.4392
2402.46  	98.4134
2405.33  	98.3899
2408.21  	98.4322
2411.08  	98.4005
2413.95  	98.4367
2416.83  	98.4232
2419.7  	98.4346
2422.58  	98.4979
2425.45  	98.4751
2428.32  	98.5612
2431.2  	98.6017
2434.07  	98.6252
2436.94  	98.6179
2439.82  	98.5796
2442.69  	98.6355
2445.57  	98.7327
2448.44  	98.7
2451.31  	98.6142
2454.19  	98.6233
2457.06  	98.6297
2459.93  	98.6691
2462.81  	98.5648
2465.68  	98.5278
2468.56  	98.4904
2471.43  	98.4114
2474.3  	98.4796
2477.18  	98.4318
2480.05  	98.4964
2482.93  	98.4102
2485.8  	98.4013
2488.67  	98.405
2491.55  	98.4549
2494.42  	98.4252
2497.29  	98.3822
2500.17  	98.3671
2503.04  	98.3143
2505.92  	98.2994
2508.79  	98.2545
2511.66  	98.1895
2514.54  	98.1825
2517.41  	98.1921
2520.28  	98.2185
2523.16  	98.2253
2526.03  	98.1144
2528.91  	98.1723
2531.78  	98.2047
2534.65  	98.1881
2537.53  	98.2409
2540.4  	98.2006
2543.27  	98.2823
2546.15  	98.3436
2549.02  	98.3411
2551.9  	98.3723
2554.77  	98.2677
2557.64  	98.2331
2560.52  	98.278
2563.39  	98.1937
2566.26  	98.1491
2569.14  	98.0243
2572.01  	98.0036
2574.89  	97.9635
2577.76  	97.998
2580.63  	98.0055
2583.51  	97.9225
2586.38  	97.9511
2589.25  	97.991
2592.13  	97.979
2595  	98.0287
2597.88  	98.0194
2600.75  	97.9408
2603.62  	97.9967
2606.5  	97.9647
2609.37  	98.0452
2612.24  	97.9834
2615.12  	97.9744
2617.99  	98.0276
2620.87  	98.0359
2623.74  	98.0073
2626.61  	98.0048
2629.49  	98.0051
2632.36  	97.9316
2635.23  	97.9203
2638.11  	97.8516
2640.98  	97.7727
2643.86  	97.6331
2646.73  	97.5634
2649.6  	97.427
2652.48  	97.3095
2655.35  	97.1724
2658.22  	97.1057
2661.1  	97.0856
2663.97  	97.1457
2666.85  	97.2882
2669.72  	97.3916
2672.59  	97.4985
2675.47  	97.6165
2678.34  	97.6197
2681.21  	97.6305
2684.09  	97.6612
2686.96  	97.5991
2689.84  	97.5305
2692.71  	97.4457
2695.58  	97.3457
2698.46  	97.2886
2701.33  	97.2296
2704.2  	97.2018
2707.08  	97.1646
2709.95  	97.0872
2712.83  	97.0635
2715.7  	97.0525
2718.57  	96.9736
2721.45  	96.9619
2724.32  	96.9628
2727.19  	96.9832
2730.07  	97.0081
2732.94  	97.0628
2735.82  	97.0962
2738.69  	97.1588
2741.56  	97.1706
2744.44  	97.185
2747.31  	97.1679
2750.18  	97.1813
2753.06  	97.1496
2755.93  	97.12
2758.81  	97.0764
2761.68  	96.996
2764.55  	96.9961
2767.43  	96.9135
2770.3  	96.8789
2773.17  	96.8134
2776.05  	96.7519
2778.92  	96.7169
2781.8  	96.6305
2784.67  	96.6182
2787.54  	96.5608
2790.42  	96.5005
2793.29  	96.4942
2796.16  	96.4492
2799.04  	96.3517
2801.91  	96.3098
2804.79  	96.1841
2807.66  	96.0786
2810.53  	95.9086
2813.41  	95.827
2816.28  	95.7431
2819.15  	95.6799
2822.03  	95.6172
2824.9  	95.4709
2827.78  	95.3712
2830.65  	95.1823
2833.52  	95.0511
2836.4  	94.9055
2839.27  	94.6868
2842.14  	94.429
2845.02  	94.1915
2847.89  	93.8971
2850.77  	93.4817
2853.64  	92.9021
2856.51  	92.3431
2859.39  	91.7682
2862.26  	91.1006
2865.13  	90.4813
2868.01  	89.8963
2870.88  	89.2202
2873.76  	88.5508
2876.63  	87.9152
2879.5  	87.2442
2882.38  	86.7431
2885.25  	86.6761
2888.12  	86.9158
2891  	87.2248
2893.87  	87.6662
2896.75  	88.0377
2899.62  	88.3541
2902.49  	88.6093
2905.37  	88.7551
2908.24  	88.8749
2911.11  	88.7975
2913.99  	88.6352
2916.86  	88.5024
2919.74  	88.3479
2922.61  	88.1992
2925.48  	87.9349
2928.36  	87.3973
2931.23  	86.9605
2934.1  	86.9566
2936.98  	87.1914
2939.85  	87.6282
2942.73  	88.2918
2945.6  	88.8162
2948.47  	88.7894
2951.35  	88.127
2954.22  	86.6564
2957.09  	84.2613
2959.97  	80.4389
2962.84  	75.0275
2965.72  	68.5724
2968.59  	63.331
2971.46  	62.0925
2974.34  	65.9191
2977.21  	70.9404
2980.08  	75.6781
2982.96  	80.4115
2985.83  	85.6221
2988.71  	88.4965
2991.58  	90.2972
2994.45  	91.6656
2997.33  	92.6119
3000.2  	93.4038
3003.07  	94.2092
3005.95  	94.8989
3008.82  	95.4601
3011.7  	95.8775
3014.57  	96.2248
3017.44  	96.398
3020.32  	96.6083
3023.19  	96.6563
3026.06  	96.7448
3028.94  	96.7747
3031.81  	96.7921
3034.69  	96.7412
3037.56  	96.7704
3040.43  	96.7337
3043.31  	96.7894
3046.18  	96.739
3049.05  	96.7312
3051.93  	96.7493
3054.8  	96.7149
3057.68  	96.6534
3060.55  	96.6551
3063.42  	96.5655
3066.3  	96.5126
3069.17  	96.4264
3072.04  	96.3858
3074.92  	96.3435
3077.79  	96.242
3080.67  	96.1686
3083.54  	96.0901
3086.41  	95.9633
3089.29  	95.9786
3092.16  	95.8537
3095.04  	95.8103
3097.91  	95.696
3100.78  	95.5468
3103.66  	95.4013
3106.53  	95.3459
3109.4  	95.19
3112.28  	95.0479
3115.15  	94.9509
3118.03  	94.7662
3120.9  	94.6817
3123.77  	94.5724
3126.65  	94.4017
3129.52  	94.2515
3132.39  	94.0953
3135.27  	93.9394
3138.14  	93.7995
3141.02  	93.6273
3143.89  	93.3833
3146.76  	93.2385
3149.64  	92.9691
3152.51  	92.826
3155.38  	92.5927
3158.26  	92.4025
3161.13  	92.2237
3164.01  	91.934
3166.88  	91.707
3169.75  	91.4695
3172.63  	91.2418
3175.5  	90.941
3178.37  	90.645
3181.25  	90.4535
3184.12  	90.1533
3187  	89.8932
3189.87  	89.6042
3192.74  	89.3166
3195.62  	89.0805
3198.49  	88.7937
3201.36  	88.495
3204.24  	88.225
3207.11  	87.9797
3209.99  	87.6609
3212.86  	87.4152
3215.73  	87.0337
3218.61  	86.8236
3221.48  	86.4849
3224.35  	86.1625
3227.23  	85.9731
3230.1  	85.6285
3232.98  	85.3486
3235.85  	85.0306
3238.72  	84.7902
3241.6  	84.5274
3244.47  	84.1257
3247.34  	83.9469
3250.22  	83.6651
3253.09  	83.4018
3255.97  	83.1423
3258.84  	82.8089
3261.71  	82.6384
3264.59  	82.4087
3267.46  	82.1374
3270.33  	81.9124
3273.21  	81.6202
3276.08  	81.366
3278.96  	81.2343
3281.83  	80.9036
3284.7  	80.7884
3287.58  	80.6011
3290.45  	80.4391
3293.32  	80.2032
3296.2  	80.0227
3299.07  	79.9507
3301.95  	79.7757
3304.82  	79.542
3307.69  	79.4085
3310.57  	79.2749
3313.44  	79.2083
3316.31  	79.0966
3319.19  	79.0142
3322.06  	78.872
3324.94  	78.7974
3327.81  	78.748
3330.68  	78.6985
3333.56  	78.5598
3336.43  	78.628
3339.3  	78.6031
3342.18  	78.6459
3345.05  	78.6872
3347.93  	78.6473
3350.8  	78.7817
3353.67  	78.91
3356.55  	78.9862
3359.42  	79.0911
3362.29  	79.2667
3365.17  	79.4229
3368.04  	79.489
3370.92  	79.7382
3373.79  	79.9737
3376.66  	80.2189
3379.54  	80.4111
3382.41  	80.6288
3385.28  	80.7958
3388.16  	81.1634
3391.03  	81.3272
3393.91  	81.6864
3396.78  	81.9971
3399.65  	82.2512
3402.53  	82.5575
3405.4  	82.8371
3408.27  	83.1405
3411.15  	83.4204
3414.02  	83.6905
3416.9  	84.0661
3419.77  	84.4544
3422.64  	84.684
3425.52  	85.0462
3428.39  	85.3577
3431.26  	85.6902
3434.14  	86.0314
3437.01  	86.259
3439.89  	86.6572
3442.76  	86.914
3445.63  	87.2577
3448.51  	87.5235
3451.38  	87.8835
3454.25  	88.2046
3457.13  	88.4748
3460  	88.7691
3462.88  	89.0308
3465.75  	89.4459
3468.62  	89.6968
3471.5  	89.9884
3474.37  	90.2276
3477.24  	90.528
3480.12  	90.776
3482.99  	90.9467
3485.87  	91.2735
3488.74  	91.552
3491.61  	91.8709
3494.49  	92.0657
3497.36  	92.3152
3500.23  	92.5427
3503.11  	92.6486
3505.98  	92.8867
3508.86  	93.1595
3511.73  	93.3623
3514.6  	93.6701
3517.48  	93.82
3520.35  	94.0166
3523.22  	94.1214
3526.1  	94.4061
3528.97  	94.5384
3531.85  	94.6669
3534.72  	94.9372
3537.59  	95.1026
3540.47  	95.3152
3543.34  	95.5276
3546.21  	95.6313
3549.09  	95.7136
3551.96  	95.9369
3554.84  	96.0352
3557.71  	96.3057
3560.58  	96.3338
3563.46  	96.4411
3566.33  	96.6035
3569.2  	96.6269
3572.08  	96.9051
3574.95  	96.9386
3577.83  	96.9895
3580.7  	97.1326
3583.57  	97.2084
3586.45  	97.2509
3589.32  	97.2018
3592.19  	97.4256
3595.07  	97.4351
3597.94  	97.4925
3600.82  	97.5545
3603.69  	97.6301
3606.56  	97.6983
3609.44  	97.6421
3612.31  	97.7355
3615.18  	97.7192
3618.06  	97.9075
3620.93  	97.7841
3623.81  	98.0182
3626.68  	97.9754
3629.55  	97.8643
3632.43  	97.9724
3635.3  	97.9135
3638.17  	97.998
3641.05  	98.0526
3643.92  	98.0393
3646.8  	98.1177
3649.67  	97.9778
3652.54  	97.9263
3655.42  	98.1591
3658.29  	97.9804
3661.16  	98.1679
3664.04  	98.1531
3666.91  	98.2359
3669.79  	98.3024
3672.66  	98.1802
3675.53  	98.2827
3678.41  	98.2271
3681.28  	98.3833
3684.15  	98.4603
3687.03  	98.5912
3689.9  	98.484
3692.78  	98.5687
3695.65  	98.7497
3698.52  	98.7275
3701.4  	98.8174
3704.27  	98.7725
3707.15  	98.8775
3710.02  	98.7849
3712.89  	98.7483
3715.77  	98.8573
3718.64  	98.9233
3721.51  	98.8863
3724.39  	98.8439
3727.26  	98.8442
3730.14  	98.9416
3733.01  	98.8866
3735.88  	98.9029
3738.76  	98.9533
3741.63  	99.0377
3744.5  	99.1394
3747.38  	99.034
3750.25  	99.1786
3753.13  	99.0146
3756  	99.16
3758.87  	99.1547
3761.75  	99.078
3764.62  	99.2487
3767.49  	99.0918
3770.37  	99.1661
3773.24  	99.1252
3776.12  	99.1483
3778.99  	99.1614
3781.86  	98.979
3784.74  	99.0679
3787.61  	99.022
3790.48  	99.058
3793.36  	98.9998
3796.23  	99.0681
3799.11  	98.9625
3801.98  	98.8692
3804.85  	98.9872
3807.73  	98.9545
3810.6  	98.9361
3813.47  	99.0756
3816.35  	98.9328
3819.22  	99.0642
3822.1  	98.7888
3824.97  	99.0437
3827.84  	98.9838
3830.72  	99.12
3833.59  	98.887
3836.46  	98.9754
3839.34  	98.7327
3842.21  	98.9518
3845.09  	98.9383
3847.96  	99.0283
3850.83  	99.0538
3853.71  	98.9428
3856.58  	98.8937
3859.45  	99.0491
3862.33  	99.0495
3865.2  	98.9504
3868.08  	99.1403
3870.95  	98.8758
3873.82  	99.1447
3876.7  	99.0485
3879.57  	99.1217
3882.44  	98.965
3885.32  	99.1075
3888.19  	99.0051
3891.07  	99.1818
3893.94  	99.0175
3896.81  	99.1597
3899.69  	99.1205
3902.56  	99.1245
3905.43  	99.0246
3908.31  	99.1193
3911.18  	99.1472
3914.06  	99.0672
3916.93  	99.0873
3919.8  	98.9935
3922.68  	99.0842
3925.55  	99.0422
3928.42  	99.0927
3931.3  	99.0415
3934.17  	98.9749
3937.05  	99.0896
3939.92  	99.1146
3942.79  	99.1015
3945.67  	99.1247
3948.54  	99.1557
3951.41  	99.1268
3954.29  	99.1454
3957.16  	99.0633
3960.04  	99.0844
3962.91  	99.1074
3965.78  	99.1245
3968.66  	99.0601
3971.53  	99.0574
3974.4  	99.0889
3977.28  	99.0849
3980.15  	99.0429
3983.03  	99.0937
3985.9  	99.0742
3988.77  	99.0644
3991.65  	99.0535
3994.52  	99.0865
3997.39  	99.0525
4000.27  	99.0371